success,trial_type,trial_index,time_elapsed,internal_node_id,cwid,StartTime,EndTime,rt,response,task,question_order,stim,answer,stimulus,Correct
1.0,fullscreen,0,2595,0.0-0.0,4189255,2023/12/21 14:26:36,2023/12/21 14:29:07,,,,,,,,0
,survey-html-form,1,5697,0.0-1.0,4189255,2023/12/21 14:26:36,2023/12/21 14:29:07,3101.0,Array,rpms_instruction,,,,,0
,survey-html-form,2,13449,0.0-2.0,4189255,2023/12/21 14:26:36,2023/12/21 14:29:07,7751.0,Array,rpms_instruction,,,,,0
,survey-html-form,3,15689,0.0-3.0,4189255,2023/12/21 14:26:36,2023/12/21 14:29:07,2240.0,Array,rpms_instruction,,,,,0
,survey-likert,4,33681,0.0-4.0-0.0,4189255,2023/12/21 14:26:36,2023/12/21 14:29:07,17991.0,Array,rpms_task,Array,RPMShort_images/G0T1E01RPM01.png,5.0,,1
,survey-likert,5,45721,0.0-4.0-1.0,4189255,2023/12/21 14:26:36,2023/12/21 14:29:07,12038.0,Array,rpms_task,Array,RPMShort_images/G0T1E02RPM04.png,8.0,,0
,survey-likert,6,57849,0.0-4.0-2.0,4189255,2023/12/21 14:26:36,2023/12/21 14:29:07,12126.0,Array,rpms_task,Array,RPMShort_images/G0T1E03RPM08.png,1.0,,1
,survey-likert,7,73033,0.0-4.0-3.0,4189255,2023/12/21 14:26:36,2023/12/21 14:29:07,15181.0,Array,rpms_task,Array,RPMShort_images/G0T1E04RPM11.png,2.0,,0
,survey-likert,8,85601,0.0-4.0-4.0,4189255,2023/12/21 14:26:36,2023/12/21 14:29:07,12566.0,Array,rpms_task,Array,RPMShort_images/G0T1E05RPM15.png,2.0,,1
,survey-likert,9,91721,0.0-4.0-5.0,4189255,2023/12/21 14:26:36,2023/12/21 14:29:07,6118.0,Array,rpms_task,Array,RPMShort_images/G0T1E06RPM18.png,3.0,,0
,survey-likert,10,101192,0.0-4.0-6.0,4189255,2023/12/21 14:26:36,2023/12/21 14:29:07,9470.0,Array,rpms_task,Array,RPMShort_images/G0T1E07RPM21.png,4.0,,0
,survey-likert,11,116048,0.0-4.0-7.0,4189255,2023/12/21 14:26:36,2023/12/21 14:29:07,14854.0,Array,rpms_task,Array,RPMShort_images/G0T1E08RPM23.png,6.0,,1
,survey-likert,12,129344,0.0-4.0-8.0,4189255,2023/12/21 14:26:36,2023/12/21 14:29:07,13294.0,Array,rpms_task,Array,RPMShort_images/G0T1E09RPM25.png,8.0,,0
,survey-likert,13,135224,0.0-4.0-9.0,4189255,2023/12/21 14:26:36,2023/12/21 14:29:07,5878.0,Array,rpms_task,Array,RPMShort_images/G0T1E10RPM30.png,8.0,,0
,survey-likert,14,140728,0.0-4.0-10.0,4189255,2023/12/21 14:26:36,2023/12/21 14:29:07,5502.0,Array,rpms_task,Array,RPMShort_images/G0T1E11RPM31.png,7.0,,0
,survey-likert,15,149272,0.0-4.0-11.0,4189255,2023/12/21 14:26:36,2023/12/21 14:29:07,8543.0,Array,rpms_task,Array,RPMShort_images/G0T1E12RPM35.png,3.0,,1
,html-keyboard-response,16,151026,0.0-5.0,4189255,2023/12/21 14:26:36,2023/12/21 14:29:07,1752.0, ,rpms_debrief,,,,<p style='text-algin:left'>これで実験は終了です。お疲れ様でした。</p><p style='text-algin:left'>スペースキーを押して次の実験に遷移するのをお待ちください。</p>,0
1.0,fullscreen,0,5799,0.0-0.0,2779575,2023/12/21 14:26:09,2023/12/21 14:29:43,,,,,,,,0
,survey-html-form,1,14174,0.0-1.0,2779575,2023/12/21 14:26:09,2023/12/21 14:29:43,8373.0,Array,rpms_instruction,,,,,0
,survey-html-form,2,24382,0.0-2.0,2779575,2023/12/21 14:26:09,2023/12/21 14:29:43,10207.0,Array,rpms_instruction,,,,,0
,survey-html-form,3,35674,0.0-3.0,2779575,2023/12/21 14:26:09,2023/12/21 14:29:43,11292.0,Array,rpms_instruction,,,,,0
,survey-likert,4,76796,0.0-4.0-0.0,2779575,2023/12/21 14:26:09,2023/12/21 14:29:43,41120.0,Array,rpms_task,Array,RPMShort_images/G0T1E01RPM01.png,5.0,,1
,survey-likert,5,87808,0.0-4.0-1.0,2779575,2023/12/21 14:26:09,2023/12/21 14:29:43,11009.0,Array,rpms_task,Array,RPMShort_images/G0T1E02RPM04.png,3.0,,0
,survey-likert,6,102211,0.0-4.0-2.0,2779575,2023/12/21 14:26:09,2023/12/21 14:29:43,14401.0,Array,rpms_task,Array,RPMShort_images/G0T1E03RPM08.png,8.0,,0
,survey-likert,7,112366,0.0-4.0-3.0,2779575,2023/12/21 14:26:09,2023/12/21 14:29:43,10151.0,Array,rpms_task,Array,RPMShort_images/G0T1E04RPM11.png,5.0,,1
,survey-likert,8,133776,0.0-4.0-4.0,2779575,2023/12/21 14:26:09,2023/12/21 14:29:43,21407.0,Array,rpms_task,Array,RPMShort_images/G0T1E05RPM15.png,1.0,,0
,survey-likert,9,143214,0.0-4.0-5.0,2779575,2023/12/21 14:26:09,2023/12/21 14:29:43,9436.0,Array,rpms_task,Array,RPMShort_images/G0T1E06RPM18.png,5.0,,0
,survey-likert,10,151960,0.0-4.0-6.0,2779575,2023/12/21 14:26:09,2023/12/21 14:29:43,8743.0,Array,rpms_task,Array,RPMShort_images/G0T1E07RPM21.png,4.0,,0
,survey-likert,11,173106,0.0-4.0-7.0,2779575,2023/12/21 14:26:09,2023/12/21 14:29:43,21144.0,Array,rpms_task,Array,RPMShort_images/G0T1E08RPM23.png,1.0,,0
,survey-likert,12,184978,0.0-4.0-8.0,2779575,2023/12/21 14:26:09,2023/12/21 14:29:43,11869.0,Array,rpms_task,Array,RPMShort_images/G0T1E09RPM25.png,6.0,,0
,survey-likert,13,191542,0.0-4.0-9.0,2779575,2023/12/21 14:26:09,2023/12/21 14:29:43,6562.0,Array,rpms_task,Array,RPMShort_images/G0T1E10RPM30.png,1.0,,0
,survey-likert,14,199242,0.0-4.0-10.0,2779575,2023/12/21 14:26:09,2023/12/21 14:29:43,7697.0,Array,rpms_task,Array,RPMShort_images/G0T1E11RPM31.png,7.0,,0
,survey-likert,15,211406,0.0-4.0-11.0,2779575,2023/12/21 14:26:09,2023/12/21 14:29:43,12161.0,Array,rpms_task,Array,RPMShort_images/G0T1E12RPM35.png,2.0,,0
,html-keyboard-response,16,214046,0.0-5.0,2779575,2023/12/21 14:26:09,2023/12/21 14:29:43,2638.0, ,rpms_debrief,,,,<p style='text-algin:left'>これで実験は終了です。お疲れ様でした。</p><p style='text-algin:left'>スペースキーを押して次の実験に遷移するのをお待ちください。</p>,0
1.0,fullscreen,0,3747,0.0-0.0,2250473,2023/12/21 14:25:59,2023/12/21 14:29:53,,,,,,,,0
,survey-html-form,1,10174,0.0-1.0,2250473,2023/12/21 14:25:59,2023/12/21 14:29:53,6426.0,Array,rpms_instruction,,,,,0
,survey-html-form,2,24351,0.0-2.0,2250473,2023/12/21 14:25:59,2023/12/21 14:29:53,14175.0,Array,rpms_instruction,,,,,0
,survey-html-form,3,40537,0.0-3.0,2250473,2023/12/21 14:25:59,2023/12/21 14:29:53,16184.0,Array,rpms_instruction,,,,,0
,survey-likert,4,51825,0.0-4.0-0.0,2250473,2023/12/21 14:25:59,2023/12/21 14:29:53,11285.0,Array,rpms_task,Array,RPMShort_images/G0T1E01RPM01.png,8.0,,0
,survey-likert,5,73341,0.0-4.0-1.0,2250473,2023/12/21 14:25:59,2023/12/21 14:29:53,21512.0,Array,rpms_task,Array,RPMShort_images/G0T1E02RPM04.png,8.0,,0
,survey-likert,6,86441,0.0-4.0-2.0,2250473,2023/12/21 14:25:59,2023/12/21 14:29:53,13096.0,Array,rpms_task,Array,RPMShort_images/G0T1E03RPM08.png,4.0,,0
,survey-likert,7,99876,0.0-4.0-3.0,2250473,2023/12/21 14:25:59,2023/12/21 14:29:53,13431.0,Array,rpms_task,Array,RPMShort_images/G0T1E04RPM11.png,4.0,,0
,survey-likert,8,114278,0.0-4.0-4.0,2250473,2023/12/21 14:25:59,2023/12/21 14:29:53,14399.0,Array,rpms_task,Array,RPMShort_images/G0T1E05RPM15.png,2.0,,1
,survey-likert,9,123883,0.0-4.0-5.0,2250473,2023/12/21 14:25:59,2023/12/21 14:29:53,9602.0,Array,rpms_task,Array,RPMShort_images/G0T1E06RPM18.png,1.0,,0
,survey-likert,10,140613,0.0-4.0-6.0,2250473,2023/12/21 14:25:59,2023/12/21 14:29:53,16726.0,Array,rpms_task,Array,RPMShort_images/G0T1E07RPM21.png,8.0,,1
,survey-likert,11,156925,0.0-4.0-7.0,2250473,2023/12/21 14:25:59,2023/12/21 14:29:53,16309.0,Array,rpms_task,Array,RPMShort_images/G0T1E08RPM23.png,8.0,,0
,survey-likert,12,171955,0.0-4.0-8.0,2250473,2023/12/21 14:25:59,2023/12/21 14:29:53,15027.0,Array,rpms_task,Array,RPMShort_images/G0T1E09RPM25.png,2.0,,0
,survey-likert,13,193437,0.0-4.0-9.0,2250473,2023/12/21 14:25:59,2023/12/21 14:29:53,21479.0,Array,rpms_task,Array,RPMShort_images/G0T1E10RPM30.png,4.0,,0
,survey-likert,14,215123,0.0-4.0-10.0,2250473,2023/12/21 14:25:59,2023/12/21 14:29:53,21682.0,Array,rpms_task,Array,RPMShort_images/G0T1E11RPM31.png,2.0,,0
,survey-likert,15,232229,0.0-4.0-11.0,2250473,2023/12/21 14:25:59,2023/12/21 14:29:53,17102.0,Array,rpms_task,Array,RPMShort_images/G0T1E12RPM35.png,7.0,,0
,html-keyboard-response,16,233701,0.0-5.0,2250473,2023/12/21 14:25:59,2023/12/21 14:29:53,1470.0, ,rpms_debrief,,,,<p style='text-algin:left'>これで実験は終了です。お疲れ様でした。</p><p style='text-algin:left'>スペースキーを押して次の実験に遷移するのをお待ちください。</p>,0
1.0,fullscreen,0,6321,0.0-0.0,3700270,2023/12/21 14:25:22,2023/12/21 14:30:12,,,,,,,,0
,survey-html-form,1,11250,0.0-1.0,3700270,2023/12/21 14:25:22,2023/12/21 14:30:12,4916.0,Array,rpms_instruction,,,,,0
,survey-html-form,2,19278,0.0-2.0,3700270,2023/12/21 14:25:22,2023/12/21 14:30:12,8026.0,Array,rpms_instruction,,,,,0
,survey-html-form,3,30310,0.0-3.0,3700270,2023/12/21 14:25:22,2023/12/21 14:30:12,11029.0,Array,rpms_instruction,,,,,0
,survey-likert,4,46629,0.0-4.0-0.0,3700270,2023/12/21 14:25:22,2023/12/21 14:30:12,16312.0,Array,rpms_task,Array,RPMShort_images/G0T1E01RPM01.png,8.0,,0
,survey-likert,5,77633,0.0-4.0-1.0,3700270,2023/12/21 14:25:22,2023/12/21 14:30:12,30990.0,Array,rpms_task,Array,RPMShort_images/G0T1E02RPM04.png,8.0,,0
,survey-likert,6,96741,0.0-4.0-2.0,3700270,2023/12/21 14:25:22,2023/12/21 14:30:12,19091.0,Array,rpms_task,Array,RPMShort_images/G0T1E03RPM08.png,1.0,,1
,survey-likert,7,114916,0.0-4.0-3.0,3700270,2023/12/21 14:25:22,2023/12/21 14:30:12,18164.0,Array,rpms_task,Array,RPMShort_images/G0T1E04RPM11.png,5.0,,1
,survey-likert,8,148066,0.0-4.0-4.0,3700270,2023/12/21 14:25:22,2023/12/21 14:30:12,33133.0,Array,rpms_task,Array,RPMShort_images/G0T1E05RPM15.png,5.0,,0
,survey-likert,9,161355,0.0-4.0-5.0,3700270,2023/12/21 14:25:22,2023/12/21 14:30:12,13271.0,Array,rpms_task,Array,RPMShort_images/G0T1E06RPM18.png,4.0,,0
,survey-likert,10,181346,0.0-4.0-6.0,3700270,2023/12/21 14:25:22,2023/12/21 14:30:12,19972.0,Array,rpms_task,Array,RPMShort_images/G0T1E07RPM21.png,8.0,,1
,survey-likert,11,189858,0.0-4.0-7.0,3700270,2023/12/21 14:25:22,2023/12/21 14:30:12,8503.0,Array,rpms_task,Array,RPMShort_images/G0T1E08RPM23.png,6.0,,1
,survey-likert,12,207067,0.0-4.0-8.0,3700270,2023/12/21 14:25:22,2023/12/21 14:30:12,17190.0,Array,rpms_task,Array,RPMShort_images/G0T1E09RPM25.png,2.0,,0
,survey-likert,13,236479,0.0-4.0-9.0,3700270,2023/12/21 14:25:22,2023/12/21 14:30:12,29394.0,Array,rpms_task,Array,RPMShort_images/G0T1E10RPM30.png,4.0,,0
,survey-likert,14,264119,0.0-4.0-10.0,3700270,2023/12/21 14:25:22,2023/12/21 14:30:12,27622.0,Array,rpms_task,Array,RPMShort_images/G0T1E11RPM31.png,3.0,,0
,survey-likert,15,287453,0.0-4.0-11.0,3700270,2023/12/21 14:25:22,2023/12/21 14:30:12,23317.0,Array,rpms_task,Array,RPMShort_images/G0T1E12RPM35.png,1.0,,0
,html-keyboard-response,16,289997,0.0-5.0,3700270,2023/12/21 14:25:22,2023/12/21 14:30:12,2535.0, ,rpms_debrief,,,,<p style='text-algin:left'>これで実験は終了です。お疲れ様でした。</p><p style='text-algin:left'>スペースキーを押して次の実験に遷移するのをお待ちください。</p>,0
1.0,fullscreen,0,6564,0.0-0.0,1229329,2023/12/21 14:25:06,2023/12/21 14:31:03,,,,,,,,0
,survey-html-form,1,12806,0.0-1.0,1229329,2023/12/21 14:25:06,2023/12/21 14:31:03,6240.0,Array,rpms_instruction,,,,,0
,survey-html-form,2,33036,0.0-2.0,1229329,2023/12/21 14:25:06,2023/12/21 14:31:03,20229.0,Array,rpms_instruction,,,,,0
,survey-html-form,3,36514,0.0-3.0,1229329,2023/12/21 14:25:06,2023/12/21 14:31:03,3477.0,Array,rpms_instruction,,,,,0
,survey-likert,4,81166,0.0-4.0-0.0,1229329,2023/12/21 14:25:06,2023/12/21 14:31:03,44650.0,Array,rpms_task,Array,RPMShort_images/G0T1E01RPM01.png,5.0,,1
,survey-likert,5,114326,0.0-4.0-1.0,1229329,2023/12/21 14:25:06,2023/12/21 14:31:03,33157.0,Array,rpms_task,Array,RPMShort_images/G0T1E02RPM04.png,8.0,,0
,survey-likert,6,136329,0.0-4.0-2.0,1229329,2023/12/21 14:25:06,2023/12/21 14:31:03,22001.0,Array,rpms_task,Array,RPMShort_images/G0T1E03RPM08.png,5.0,,0
,survey-likert,7,154421,0.0-4.0-3.0,1229329,2023/12/21 14:25:06,2023/12/21 14:31:03,18089.0,Array,rpms_task,Array,RPMShort_images/G0T1E04RPM11.png,5.0,,1
,survey-likert,8,195876,0.0-4.0-4.0,1229329,2023/12/21 14:25:06,2023/12/21 14:31:03,41451.0,Array,rpms_task,Array,RPMShort_images/G0T1E05RPM15.png,2.0,,1
,survey-likert,9,221203,0.0-4.0-5.0,1229329,2023/12/21 14:25:06,2023/12/21 14:31:03,25325.0,Array,rpms_task,Array,RPMShort_images/G0T1E06RPM18.png,5.0,,0
,survey-likert,10,248235,0.0-4.0-6.0,1229329,2023/12/21 14:25:06,2023/12/21 14:31:03,27030.0,Array,rpms_task,Array,RPMShort_images/G0T1E07RPM21.png,4.0,,0
,survey-likert,11,271323,0.0-4.0-7.0,1229329,2023/12/21 14:25:06,2023/12/21 14:31:03,23085.0,Array,rpms_task,Array,RPMShort_images/G0T1E08RPM23.png,6.0,,1
,survey-likert,12,286339,0.0-4.0-8.0,1229329,2023/12/21 14:25:06,2023/12/21 14:31:03,15014.0,Array,rpms_task,Array,RPMShort_images/G0T1E09RPM25.png,6.0,,0
,survey-likert,13,313047,0.0-4.0-9.0,1229329,2023/12/21 14:25:06,2023/12/21 14:31:03,26705.0,Array,rpms_task,Array,RPMShort_images/G0T1E10RPM30.png,1.0,,0
,survey-likert,14,331685,0.0-4.0-10.0,1229329,2023/12/21 14:25:06,2023/12/21 14:31:03,18635.0,Array,rpms_task,Array,RPMShort_images/G0T1E11RPM31.png,6.0,,0
,survey-likert,15,353479,0.0-4.0-11.0,1229329,2023/12/21 14:25:06,2023/12/21 14:31:03,21791.0,Array,rpms_task,Array,RPMShort_images/G0T1E12RPM35.png,4.0,,0
,html-keyboard-response,16,356545,0.0-5.0,1229329,2023/12/21 14:25:06,2023/12/21 14:31:03,3064.0, ,rpms_debrief,,,,<p style='text-algin:left'>これで実験は終了です。お疲れ様でした。</p><p style='text-algin:left'>スペースキーを押して次の実験に遷移するのをお待ちください。</p>,0
1.0,fullscreen,0,4425,0.0-0.0,276409,2023/12/21 14:27:31,2023/12/21 14:31:08,,,,,,,,0
,survey-html-form,1,11602,0.0-1.0,276409,2023/12/21 14:27:31,2023/12/21 14:31:08,7176.0,Array,rpms_instruction,,,,,0
,survey-html-form,2,17011,0.0-2.0,276409,2023/12/21 14:27:31,2023/12/21 14:31:08,5409.0,Array,rpms_instruction,,,,,0
,survey-html-form,3,22675,0.0-3.0,276409,2023/12/21 14:27:31,2023/12/21 14:31:08,5664.0,Array,rpms_instruction,,,,,0
,survey-likert,4,34387,0.0-4.0-0.0,276409,2023/12/21 14:27:31,2023/12/21 14:31:08,11711.0,Array,rpms_task,Array,RPMShort_images/G0T1E01RPM01.png,6.0,,0
,survey-likert,5,49659,0.0-4.0-1.0,276409,2023/12/21 14:27:31,2023/12/21 14:31:08,15270.0,Array,rpms_task,Array,RPMShort_images/G0T1E02RPM04.png,8.0,,0
,survey-likert,6,72795,0.0-4.0-2.0,276409,2023/12/21 14:27:31,2023/12/21 14:31:08,23135.0,Array,rpms_task,Array,RPMShort_images/G0T1E03RPM08.png,1.0,,1
,survey-likert,7,86842,0.0-4.0-3.0,276409,2023/12/21 14:27:31,2023/12/21 14:31:08,14045.0,Array,rpms_task,Array,RPMShort_images/G0T1E04RPM11.png,5.0,,1
,survey-likert,8,101659,0.0-4.0-4.0,276409,2023/12/21 14:27:31,2023/12/21 14:31:08,14815.0,Array,rpms_task,Array,RPMShort_images/G0T1E05RPM15.png,5.0,,0
,survey-likert,9,110106,0.0-4.0-5.0,276409,2023/12/21 14:27:31,2023/12/21 14:31:08,8446.0,Array,rpms_task,Array,RPMShort_images/G0T1E06RPM18.png,1.0,,0
,survey-likert,10,124611,0.0-4.0-6.0,276409,2023/12/21 14:27:31,2023/12/21 14:31:08,14503.0,Array,rpms_task,Array,RPMShort_images/G0T1E07RPM21.png,8.0,,1
,survey-likert,11,141131,0.0-4.0-7.0,276409,2023/12/21 14:27:31,2023/12/21 14:31:08,16519.0,Array,rpms_task,Array,RPMShort_images/G0T1E08RPM23.png,6.0,,1
,survey-likert,12,156818,0.0-4.0-8.0,276409,2023/12/21 14:27:31,2023/12/21 14:31:08,15686.0,Array,rpms_task,Array,RPMShort_images/G0T1E09RPM25.png,7.0,,1
,survey-likert,13,178947,0.0-4.0-9.0,276409,2023/12/21 14:27:31,2023/12/21 14:31:08,22127.0,Array,rpms_task,Array,RPMShort_images/G0T1E10RPM30.png,1.0,,0
,survey-likert,14,191666,0.0-4.0-10.0,276409,2023/12/21 14:27:31,2023/12/21 14:31:08,12718.0,Array,rpms_task,Array,RPMShort_images/G0T1E11RPM31.png,3.0,,0
,survey-likert,15,211899,0.0-4.0-11.0,276409,2023/12/21 14:27:31,2023/12/21 14:31:08,20231.0,Array,rpms_task,Array,RPMShort_images/G0T1E12RPM35.png,1.0,,0
,html-keyboard-response,16,217369,0.0-5.0,276409,2023/12/21 14:27:31,2023/12/21 14:31:08,5469.0, ,rpms_debrief,,,,<p style='text-algin:left'>これで実験は終了です。お疲れ様でした。</p><p style='text-algin:left'>スペースキーを押して次の実験に遷移するのをお待ちください。</p>,0
1.0,fullscreen,0,6560,0.0-0.0,5330100,2023/12/21 14:26:23,2023/12/21 14:31:30,,,,,,,,0
,survey-html-form,1,17744,0.0-1.0,5330100,2023/12/21 14:26:23,2023/12/21 14:31:30,11182.0,Array,rpms_instruction,,,,,0
,survey-html-form,2,34279,0.0-2.0,5330100,2023/12/21 14:26:23,2023/12/21 14:31:30,16534.0,Array,rpms_instruction,,,,,0
,survey-html-form,3,39839,0.0-3.0,5330100,2023/12/21 14:26:23,2023/12/21 14:31:30,5559.0,Array,rpms_instruction,,,,,0
,survey-likert,4,57656,0.0-4.0-0.0,5330100,2023/12/21 14:26:23,2023/12/21 14:31:30,17813.0,Array,rpms_task,Array,RPMShort_images/G0T1E01RPM01.png,5.0,,1
,survey-likert,5,82311,0.0-4.0-1.0,5330100,2023/12/21 14:26:23,2023/12/21 14:31:30,24653.0,Array,rpms_task,Array,RPMShort_images/G0T1E02RPM04.png,8.0,,0
,survey-likert,6,108720,0.0-4.0-2.0,5330100,2023/12/21 14:26:23,2023/12/21 14:31:30,26404.0,Array,rpms_task,Array,RPMShort_images/G0T1E03RPM08.png,1.0,,1
,survey-likert,7,123008,0.0-4.0-3.0,5330100,2023/12/21 14:26:23,2023/12/21 14:31:30,14286.0,Array,rpms_task,Array,RPMShort_images/G0T1E04RPM11.png,6.0,,0
,survey-likert,8,149320,0.0-4.0-4.0,5330100,2023/12/21 14:26:23,2023/12/21 14:31:30,26309.0,Array,rpms_task,Array,RPMShort_images/G0T1E05RPM15.png,6.0,,0
,survey-likert,9,176823,0.0-4.0-5.0,5330100,2023/12/21 14:26:23,2023/12/21 14:31:30,27502.0,Array,rpms_task,Array,RPMShort_images/G0T1E06RPM18.png,1.0,,0
,survey-likert,10,194135,0.0-4.0-6.0,5330100,2023/12/21 14:26:23,2023/12/21 14:31:30,17309.0,Array,rpms_task,Array,RPMShort_images/G0T1E07RPM21.png,4.0,,0
,survey-likert,11,213959,0.0-4.0-7.0,5330100,2023/12/21 14:26:23,2023/12/21 14:31:30,19821.0,Array,rpms_task,Array,RPMShort_images/G0T1E08RPM23.png,1.0,,0
,survey-likert,12,229311,0.0-4.0-8.0,5330100,2023/12/21 14:26:23,2023/12/21 14:31:30,15349.0,Array,rpms_task,Array,RPMShort_images/G0T1E09RPM25.png,2.0,,0
,survey-likert,13,270873,0.0-4.0-9.0,5330100,2023/12/21 14:26:23,2023/12/21 14:31:30,41559.0,Array,rpms_task,Array,RPMShort_images/G0T1E10RPM30.png,7.0,,0
,survey-likert,14,281703,0.0-4.0-10.0,5330100,2023/12/21 14:26:23,2023/12/21 14:31:30,10828.0,Array,rpms_task,Array,RPMShort_images/G0T1E11RPM31.png,7.0,,0
,survey-likert,15,303631,0.0-4.0-11.0,5330100,2023/12/21 14:26:23,2023/12/21 14:31:30,21925.0,Array,rpms_task,Array,RPMShort_images/G0T1E12RPM35.png,3.0,,1
,html-keyboard-response,16,306976,0.0-5.0,5330100,2023/12/21 14:26:23,2023/12/21 14:31:30,3342.0, ,rpms_debrief,,,,<p style='text-algin:left'>これで実験は終了です。お疲れ様でした。</p><p style='text-algin:left'>スペースキーを押して次の実験に遷移するのをお待ちください。</p>,0
1.0,fullscreen,0,3049,0.0-0.0,367640,2023/12/21 14:24:41,2023/12/21 14:31:35,,,,,,,,0
,survey-html-form,1,8025,0.0-1.0,367640,2023/12/21 14:24:41,2023/12/21 14:31:35,4974.0,Array,rpms_instruction,,,,,0
,survey-html-form,2,20697,0.0-2.0,367640,2023/12/21 14:24:41,2023/12/21 14:31:35,12672.0,Array,rpms_instruction,,,,,0
,survey-html-form,3,24329,0.0-3.0,367640,2023/12/21 14:24:41,2023/12/21 14:31:35,3631.0,Array,rpms_instruction,,,,,0
,survey-likert,4,63473,0.0-4.0-0.0,367640,2023/12/21 14:24:41,2023/12/21 14:31:35,39143.0,Array,rpms_task,Array,RPMShort_images/G0T1E01RPM01.png,5.0,,1
,survey-likert,5,97058,0.0-4.0-1.0,367640,2023/12/21 14:24:41,2023/12/21 14:31:35,33582.0,Array,rpms_task,Array,RPMShort_images/G0T1E02RPM04.png,4.0,,1
,survey-likert,6,137978,0.0-4.0-2.0,367640,2023/12/21 14:24:41,2023/12/21 14:31:35,40918.0,Array,rpms_task,Array,RPMShort_images/G0T1E03RPM08.png,3.0,,0
,survey-likert,7,151490,0.0-4.0-3.0,367640,2023/12/21 14:24:41,2023/12/21 14:31:35,13510.0,Array,rpms_task,Array,RPMShort_images/G0T1E04RPM11.png,5.0,,1
,survey-likert,8,168497,0.0-4.0-4.0,367640,2023/12/21 14:24:41,2023/12/21 14:31:35,17006.0,Array,rpms_task,Array,RPMShort_images/G0T1E05RPM15.png,8.0,,0
,survey-likert,9,209385,0.0-4.0-5.0,367640,2023/12/21 14:24:41,2023/12/21 14:31:35,40886.0,Array,rpms_task,Array,RPMShort_images/G0T1E06RPM18.png,2.0,,0
,survey-likert,10,267433,0.0-4.0-6.0,367640,2023/12/21 14:24:41,2023/12/21 14:31:35,58046.0,Array,rpms_task,Array,RPMShort_images/G0T1E07RPM21.png,8.0,,1
,survey-likert,11,294241,0.0-4.0-7.0,367640,2023/12/21 14:24:41,2023/12/21 14:31:35,26806.0,Array,rpms_task,Array,RPMShort_images/G0T1E08RPM23.png,6.0,,1
,survey-likert,12,308449,0.0-4.0-8.0,367640,2023/12/21 14:24:41,2023/12/21 14:31:35,14206.0,Array,rpms_task,Array,RPMShort_images/G0T1E09RPM25.png,1.0,,0
,survey-likert,13,343785,0.0-4.0-9.0,367640,2023/12/21 14:24:41,2023/12/21 14:31:35,35334.0,Array,rpms_task,Array,RPMShort_images/G0T1E10RPM30.png,4.0,,0
,survey-likert,14,378482,0.0-4.0-10.0,367640,2023/12/21 14:24:41,2023/12/21 14:31:35,34694.0,Array,rpms_task,Array,RPMShort_images/G0T1E11RPM31.png,7.0,,0
,survey-likert,15,412146,0.0-4.0-11.0,367640,2023/12/21 14:24:41,2023/12/21 14:31:35,33662.0,Array,rpms_task,Array,RPMShort_images/G0T1E12RPM35.png,7.0,,0
,html-keyboard-response,16,414177,0.0-5.0,367640,2023/12/21 14:24:41,2023/12/21 14:31:35,2029.0, ,rpms_debrief,,,,<p style='text-algin:left'>これで実験は終了です。お疲れ様でした。</p><p style='text-algin:left'>スペースキーを押して次の実験に遷移するのをお待ちください。</p>,0
1.0,fullscreen,0,5784,0.0-0.0,4213579,2023/12/21 14:25:39,2023/12/21 14:31:48,,,,,,,,0
,survey-html-form,1,24487,0.0-1.0,4213579,2023/12/21 14:25:39,2023/12/21 14:31:48,18702.0,Array,rpms_instruction,,,,,0
,survey-html-form,2,30095,0.0-2.0,4213579,2023/12/21 14:25:39,2023/12/21 14:31:48,5607.0,Array,rpms_instruction,,,,,0
,survey-html-form,3,32583,0.0-3.0,4213579,2023/12/21 14:25:39,2023/12/21 14:31:48,2487.0,Array,rpms_instruction,,,,,0
,survey-likert,4,49616,0.0-4.0-0.0,4213579,2023/12/21 14:25:39,2023/12/21 14:31:48,17032.0,Array,rpms_task,Array,RPMShort_images/G0T1E01RPM01.png,5.0,,1
,survey-likert,5,71703,0.0-4.0-1.0,4213579,2023/12/21 14:25:39,2023/12/21 14:31:48,22085.0,Array,rpms_task,Array,RPMShort_images/G0T1E02RPM04.png,4.0,,1
,survey-likert,6,105662,0.0-4.0-2.0,4213579,2023/12/21 14:25:39,2023/12/21 14:31:48,33958.0,Array,rpms_task,Array,RPMShort_images/G0T1E03RPM08.png,4.0,,0
,survey-likert,7,116670,0.0-4.0-3.0,4213579,2023/12/21 14:25:39,2023/12/21 14:31:48,11005.0,Array,rpms_task,Array,RPMShort_images/G0T1E04RPM11.png,1.0,,0
,survey-likert,8,141494,0.0-4.0-4.0,4213579,2023/12/21 14:25:39,2023/12/21 14:31:48,24822.0,Array,rpms_task,Array,RPMShort_images/G0T1E05RPM15.png,2.0,,1
,survey-likert,9,165663,0.0-4.0-5.0,4213579,2023/12/21 14:25:39,2023/12/21 14:31:48,24167.0,Array,rpms_task,Array,RPMShort_images/G0T1E06RPM18.png,7.0,,1
,survey-likert,10,196582,0.0-4.0-6.0,4213579,2023/12/21 14:25:39,2023/12/21 14:31:48,30917.0,Array,rpms_task,Array,RPMShort_images/G0T1E07RPM21.png,4.0,,0
,survey-likert,11,231454,0.0-4.0-7.0,4213579,2023/12/21 14:25:39,2023/12/21 14:31:48,34871.0,Array,rpms_task,Array,RPMShort_images/G0T1E08RPM23.png,6.0,,1
,survey-likert,12,262439,0.0-4.0-8.0,4213579,2023/12/21 14:25:39,2023/12/21 14:31:48,30982.0,Array,rpms_task,Array,RPMShort_images/G0T1E09RPM25.png,7.0,,1
,survey-likert,13,306486,0.0-4.0-9.0,4213579,2023/12/21 14:25:39,2023/12/21 14:31:48,44046.0,Array,rpms_task,Array,RPMShort_images/G0T1E10RPM30.png,1.0,,0
,survey-likert,14,331365,0.0-4.0-10.0,4213579,2023/12/21 14:25:39,2023/12/21 14:31:48,24879.0,Array,rpms_task,Array,RPMShort_images/G0T1E11RPM31.png,5.0,,0
,survey-likert,15,366285,0.0-4.0-11.0,4213579,2023/12/21 14:25:39,2023/12/21 14:31:48,34919.0,Array,rpms_task,Array,RPMShort_images/G0T1E12RPM35.png,4.0,,0
,html-keyboard-response,16,368608,0.0-5.0,4213579,2023/12/21 14:25:39,2023/12/21 14:31:48,2321.0, ,rpms_debrief,,,,<p style='text-algin:left'>これで実験は終了です。お疲れ様でした。</p><p style='text-algin:left'>スペースキーを押して次の実験に遷移するのをお待ちください。</p>,0
1.0,fullscreen,0,5490,0.0-0.0,728411,2023/12/21 14:27:01,2023/12/21 14:32:00,,,,,,,,0
,survey-html-form,1,9514,0.0-1.0,728411,2023/12/21 14:27:01,2023/12/21 14:32:00,4021.0,Array,rpms_instruction,,,,,0
,survey-html-form,2,17794,0.0-2.0,728411,2023/12/21 14:27:01,2023/12/21 14:32:00,8279.0,Array,rpms_instruction,,,,,0
,survey-html-form,3,24142,0.0-3.0,728411,2023/12/21 14:27:01,2023/12/21 14:32:00,6346.0,Array,rpms_instruction,,,,,0
,survey-likert,4,43503,0.0-4.0-0.0,728411,2023/12/21 14:27:01,2023/12/21 14:32:00,19359.0,Array,rpms_task,Array,RPMShort_images/G0T1E01RPM01.png,5.0,,1
,survey-likert,5,70757,0.0-4.0-1.0,728411,2023/12/21 14:27:01,2023/12/21 14:32:00,27250.0,Array,rpms_task,Array,RPMShort_images/G0T1E02RPM04.png,8.0,,0
,survey-likert,6,93707,0.0-4.0-2.0,728411,2023/12/21 14:27:01,2023/12/21 14:32:00,22946.0,Array,rpms_task,Array,RPMShort_images/G0T1E03RPM08.png,1.0,,1
,survey-likert,7,118485,0.0-4.0-3.0,728411,2023/12/21 14:27:01,2023/12/21 14:32:00,24775.0,Array,rpms_task,Array,RPMShort_images/G0T1E04RPM11.png,5.0,,1
,survey-likert,8,141437,0.0-4.0-4.0,728411,2023/12/21 14:27:01,2023/12/21 14:32:00,22948.0,Array,rpms_task,Array,RPMShort_images/G0T1E05RPM15.png,3.0,,0
,survey-likert,9,163501,0.0-4.0-5.0,728411,2023/12/21 14:27:01,2023/12/21 14:32:00,22061.0,Array,rpms_task,Array,RPMShort_images/G0T1E06RPM18.png,4.0,,0
,survey-likert,10,184935,0.0-4.0-6.0,728411,2023/12/21 14:27:01,2023/12/21 14:32:00,21430.0,Array,rpms_task,Array,RPMShort_images/G0T1E07RPM21.png,7.0,,0
,survey-likert,11,203834,0.0-4.0-7.0,728411,2023/12/21 14:27:01,2023/12/21 14:32:00,18894.0,Array,rpms_task,Array,RPMShort_images/G0T1E08RPM23.png,8.0,,0
,survey-likert,12,216688,0.0-4.0-8.0,728411,2023/12/21 14:27:01,2023/12/21 14:32:00,12851.0,Array,rpms_task,Array,RPMShort_images/G0T1E09RPM25.png,7.0,,1
,survey-likert,13,243478,0.0-4.0-9.0,728411,2023/12/21 14:27:01,2023/12/21 14:32:00,26786.0,Array,rpms_task,Array,RPMShort_images/G0T1E10RPM30.png,4.0,,0
,survey-likert,14,267615,0.0-4.0-10.0,728411,2023/12/21 14:27:01,2023/12/21 14:32:00,24133.0,Array,rpms_task,Array,RPMShort_images/G0T1E11RPM31.png,3.0,,0
,survey-likert,15,291281,0.0-4.0-11.0,728411,2023/12/21 14:27:01,2023/12/21 14:32:00,23662.0,Array,rpms_task,Array,RPMShort_images/G0T1E12RPM35.png,1.0,,0
,html-keyboard-response,16,298462,0.0-5.0,728411,2023/12/21 14:27:01,2023/12/21 14:32:00,7177.0, ,rpms_debrief,,,,<p style='text-algin:left'>これで実験は終了です。お疲れ様でした。</p><p style='text-algin:left'>スペースキーを押して次の実験に遷移するのをお待ちください。</p>,0
1.0,fullscreen,0,4484,0.0-0.0,95866,2023/12/21 14:25:30,2023/12/21 14:32:54,,,,,,,,0
,survey-html-form,1,15378,0.0-1.0,95866,2023/12/21 14:25:30,2023/12/21 14:32:54,10891.0,Array,rpms_instruction,,,,,0
,survey-html-form,2,24370,0.0-2.0,95866,2023/12/21 14:25:30,2023/12/21 14:32:54,8992.0,Array,rpms_instruction,,,,,0
,survey-html-form,3,31000,0.0-3.0,95866,2023/12/21 14:25:30,2023/12/21 14:32:54,6630.0,Array,rpms_instruction,,,,,0
,survey-likert,4,66228,0.0-4.0-0.0,95866,2023/12/21 14:25:30,2023/12/21 14:32:54,35225.0,Array,rpms_task,Array,RPMShort_images/G0T1E01RPM01.png,5.0,,1
,survey-likert,5,105729,0.0-4.0-1.0,95866,2023/12/21 14:25:30,2023/12/21 14:32:54,39497.0,Array,rpms_task,Array,RPMShort_images/G0T1E02RPM04.png,4.0,,1
,survey-likert,6,142233,0.0-4.0-2.0,95866,2023/12/21 14:25:30,2023/12/21 14:32:54,36500.0,Array,rpms_task,Array,RPMShort_images/G0T1E03RPM08.png,1.0,,1
,survey-likert,7,173049,0.0-4.0-3.0,95866,2023/12/21 14:25:30,2023/12/21 14:32:54,30812.0,Array,rpms_task,Array,RPMShort_images/G0T1E04RPM11.png,5.0,,1
,survey-likert,8,235615,0.0-4.0-4.0,95866,2023/12/21 14:25:30,2023/12/21 14:32:54,62561.0,Array,rpms_task,Array,RPMShort_images/G0T1E05RPM15.png,2.0,,1
,survey-likert,9,251207,0.0-4.0-5.0,95866,2023/12/21 14:25:30,2023/12/21 14:32:54,15588.0,Array,rpms_task,Array,RPMShort_images/G0T1E06RPM18.png,5.0,,0
,survey-likert,10,267955,0.0-4.0-6.0,95866,2023/12/21 14:25:30,2023/12/21 14:32:54,16745.0,Array,rpms_task,Array,RPMShort_images/G0T1E07RPM21.png,4.0,,0
,survey-likert,11,322284,0.0-4.0-7.0,95866,2023/12/21 14:25:30,2023/12/21 14:32:54,54326.0,Array,rpms_task,Array,RPMShort_images/G0T1E08RPM23.png,8.0,,0
,survey-likert,12,369196,0.0-4.0-8.0,95866,2023/12/21 14:25:30,2023/12/21 14:32:54,46908.0,Array,rpms_task,Array,RPMShort_images/G0T1E09RPM25.png,7.0,,1
,survey-likert,13,391786,0.0-4.0-9.0,95866,2023/12/21 14:25:30,2023/12/21 14:32:54,22587.0,Array,rpms_task,Array,RPMShort_images/G0T1E10RPM30.png,1.0,,0
,survey-likert,14,419356,0.0-4.0-10.0,95866,2023/12/21 14:25:30,2023/12/21 14:32:54,27566.0,Array,rpms_task,Array,RPMShort_images/G0T1E11RPM31.png,5.0,,0
,survey-likert,15,440363,0.0-4.0-11.0,95866,2023/12/21 14:25:30,2023/12/21 14:32:54,21004.0,Array,rpms_task,Array,RPMShort_images/G0T1E12RPM35.png,1.0,,0
,html-keyboard-response,16,444722,0.0-5.0,95866,2023/12/21 14:25:30,2023/12/21 14:32:54,4355.0, ,rpms_debrief,,,,<p style='text-algin:left'>これで実験は終了です。お疲れ様でした。</p><p style='text-algin:left'>スペースキーを押して次の実験に遷移するのをお待ちください。</p>,0
1.0,fullscreen,0,5524,0.0-0.0,603644,2023/12/21 14:27:10,2023/12/21 14:33:12,,,,,,,,0
,survey-html-form,1,13359,0.0-1.0,603644,2023/12/21 14:27:10,2023/12/21 14:33:12,7833.0,Array,rpms_instruction,,,,,0
,survey-html-form,2,23054,0.0-2.0,603644,2023/12/21 14:27:10,2023/12/21 14:33:12,9694.0,Array,rpms_instruction,,,,,0
,survey-html-form,3,44719,0.0-3.0,603644,2023/12/21 14:27:10,2023/12/21 14:33:12,21665.0,Array,rpms_instruction,,,,,0
,survey-likert,4,81467,0.0-4.0-0.0,603644,2023/12/21 14:27:10,2023/12/21 14:33:12,36746.0,Array,rpms_task,Array,RPMShort_images/G0T1E01RPM01.png,2.0,,0
,survey-likert,5,93679,0.0-4.0-1.0,603644,2023/12/21 14:27:10,2023/12/21 14:33:12,12209.0,Array,rpms_task,Array,RPMShort_images/G0T1E02RPM04.png,8.0,,0
,survey-likert,6,104707,0.0-4.0-2.0,603644,2023/12/21 14:27:10,2023/12/21 14:33:12,11024.0,Array,rpms_task,Array,RPMShort_images/G0T1E03RPM08.png,1.0,,1
,survey-likert,7,131757,0.0-4.0-3.0,603644,2023/12/21 14:27:10,2023/12/21 14:33:12,27047.0,Array,rpms_task,Array,RPMShort_images/G0T1E04RPM11.png,7.0,,0
,survey-likert,8,151607,0.0-4.0-4.0,603644,2023/12/21 14:27:10,2023/12/21 14:33:12,19847.0,Array,rpms_task,Array,RPMShort_images/G0T1E05RPM15.png,2.0,,1
,survey-likert,9,176625,0.0-4.0-5.0,603644,2023/12/21 14:27:10,2023/12/21 14:33:12,25015.0,Array,rpms_task,Array,RPMShort_images/G0T1E06RPM18.png,6.0,,0
,survey-likert,10,194339,0.0-4.0-6.0,603644,2023/12/21 14:27:10,2023/12/21 14:33:12,17711.0,Array,rpms_task,Array,RPMShort_images/G0T1E07RPM21.png,8.0,,1
,survey-likert,11,227843,0.0-4.0-7.0,603644,2023/12/21 14:27:10,2023/12/21 14:33:12,33501.0,Array,rpms_task,Array,RPMShort_images/G0T1E08RPM23.png,3.0,,0
,survey-likert,12,254195,0.0-4.0-8.0,603644,2023/12/21 14:27:10,2023/12/21 14:33:12,26349.0,Array,rpms_task,Array,RPMShort_images/G0T1E09RPM25.png,8.0,,0
,survey-likert,13,321425,0.0-4.0-9.0,603644,2023/12/21 14:27:10,2023/12/21 14:33:12,67227.0,Array,rpms_task,Array,RPMShort_images/G0T1E10RPM30.png,4.0,,0
,survey-likert,14,342185,0.0-4.0-10.0,603644,2023/12/21 14:27:10,2023/12/21 14:33:12,20757.0,Array,rpms_task,Array,RPMShort_images/G0T1E11RPM31.png,5.0,,0
,survey-likert,15,360319,0.0-4.0-11.0,603644,2023/12/21 14:27:10,2023/12/21 14:33:12,18131.0,Array,rpms_task,Array,RPMShort_images/G0T1E12RPM35.png,7.0,,0
,html-keyboard-response,16,362593,0.0-5.0,603644,2023/12/21 14:27:10,2023/12/21 14:33:12,2271.0, ,rpms_debrief,,,,<p style='text-algin:left'>これで実験は終了です。お疲れ様でした。</p><p style='text-algin:left'>スペースキーを押して次の実験に遷移するのをお待ちください。</p>,0
1.0,fullscreen,0,4262,0.0-0.0,1791041,2023/12/21 14:29:08,2023/12/21 14:33:23,,,,,,,,0
,survey-html-form,1,13364,0.0-1.0,1791041,2023/12/21 14:29:08,2023/12/21 14:33:23,9101.0,Array,rpms_instruction,,,,,0
,survey-html-form,2,17496,0.0-2.0,1791041,2023/12/21 14:29:08,2023/12/21 14:33:23,4131.0,Array,rpms_instruction,,,,,0
,survey-html-form,3,20512,0.0-3.0,1791041,2023/12/21 14:29:08,2023/12/21 14:33:23,3015.0,Array,rpms_instruction,,,,,0
,survey-likert,4,37252,0.0-4.0-0.0,1791041,2023/12/21 14:29:08,2023/12/21 14:33:23,16738.0,Array,rpms_task,Array,RPMShort_images/G0T1E01RPM01.png,5.0,,1
,survey-likert,5,47164,0.0-4.0-1.0,1791041,2023/12/21 14:29:08,2023/12/21 14:33:23,9910.0,Array,rpms_task,Array,RPMShort_images/G0T1E02RPM04.png,4.0,,1
,survey-likert,6,68687,0.0-4.0-2.0,1791041,2023/12/21 14:29:08,2023/12/21 14:33:23,21521.0,Array,rpms_task,Array,RPMShort_images/G0T1E03RPM08.png,1.0,,1
,survey-likert,7,95842,0.0-4.0-3.0,1791041,2023/12/21 14:29:08,2023/12/21 14:33:23,27153.0,Array,rpms_task,Array,RPMShort_images/G0T1E04RPM11.png,5.0,,1
,survey-likert,8,117949,0.0-4.0-4.0,1791041,2023/12/21 14:29:08,2023/12/21 14:33:23,22105.0,Array,rpms_task,Array,RPMShort_images/G0T1E05RPM15.png,2.0,,1
,survey-likert,9,141472,0.0-4.0-5.0,1791041,2023/12/21 14:29:08,2023/12/21 14:33:23,23521.0,Array,rpms_task,Array,RPMShort_images/G0T1E06RPM18.png,1.0,,0
,survey-likert,10,155605,0.0-4.0-6.0,1791041,2023/12/21 14:29:08,2023/12/21 14:33:23,14131.0,Array,rpms_task,Array,RPMShort_images/G0T1E07RPM21.png,4.0,,0
,survey-likert,11,185855,0.0-4.0-7.0,1791041,2023/12/21 14:29:08,2023/12/21 14:33:23,30248.0,Array,rpms_task,Array,RPMShort_images/G0T1E08RPM23.png,6.0,,1
,survey-likert,12,203731,0.0-4.0-8.0,1791041,2023/12/21 14:29:08,2023/12/21 14:33:23,17874.0,Array,rpms_task,Array,RPMShort_images/G0T1E09RPM25.png,7.0,,1
,survey-likert,13,218454,0.0-4.0-9.0,1791041,2023/12/21 14:29:08,2023/12/21 14:33:23,14722.0,Array,rpms_task,Array,RPMShort_images/G0T1E10RPM30.png,6.0,,0
,survey-likert,14,238297,0.0-4.0-10.0,1791041,2023/12/21 14:29:08,2023/12/21 14:33:23,19841.0,Array,rpms_task,Array,RPMShort_images/G0T1E11RPM31.png,6.0,,0
,survey-likert,15,253173,0.0-4.0-11.0,1791041,2023/12/21 14:29:08,2023/12/21 14:33:23,14874.0,Array,rpms_task,Array,RPMShort_images/G0T1E12RPM35.png,1.0,,0
,html-keyboard-response,16,254793,0.0-5.0,1791041,2023/12/21 14:29:08,2023/12/21 14:33:23,1618.0, ,rpms_debrief,,,,<p style='text-algin:left'>これで実験は終了です。お疲れ様でした。</p><p style='text-algin:left'>スペースキーを押して次の実験に遷移するのをお待ちください。</p>,0
1.0,fullscreen,0,11490,0.0-0.0,783528,2023/12/21 14:26:31,2023/12/21 14:33:32,,,,,,,,0
,survey-html-form,1,24721,0.0-1.0,783528,2023/12/21 14:26:31,2023/12/21 14:33:32,13227.0,Array,rpms_instruction,,,,,0
,survey-html-form,2,35552,0.0-2.0,783528,2023/12/21 14:26:31,2023/12/21 14:33:32,10830.0,Array,rpms_instruction,,,,,0
,survey-html-form,3,39752,0.0-3.0,783528,2023/12/21 14:26:31,2023/12/21 14:33:32,4199.0,Array,rpms_instruction,,,,,0
,survey-likert,4,105920,0.0-4.0-0.0,783528,2023/12/21 14:26:31,2023/12/21 14:33:32,66165.0,Array,rpms_task,Array,RPMShort_images/G0T1E01RPM01.png,5.0,,1
,survey-likert,5,167039,0.0-4.0-1.0,783528,2023/12/21 14:26:31,2023/12/21 14:33:32,61115.0,Array,rpms_task,Array,RPMShort_images/G0T1E02RPM04.png,4.0,,1
,survey-likert,6,194871,0.0-4.0-2.0,783528,2023/12/21 14:26:31,2023/12/21 14:33:32,27828.0,Array,rpms_task,Array,RPMShort_images/G0T1E03RPM08.png,1.0,,1
,survey-likert,7,221519,0.0-4.0-3.0,783528,2023/12/21 14:26:31,2023/12/21 14:33:32,26643.0,Array,rpms_task,Array,RPMShort_images/G0T1E04RPM11.png,5.0,,1
,survey-likert,8,247518,0.0-4.0-4.0,783528,2023/12/21 14:26:31,2023/12/21 14:33:32,25996.0,Array,rpms_task,Array,RPMShort_images/G0T1E05RPM15.png,7.0,,0
,survey-likert,9,259718,0.0-4.0-5.0,783528,2023/12/21 14:26:31,2023/12/21 14:33:32,12196.0,Array,rpms_task,Array,RPMShort_images/G0T1E06RPM18.png,2.0,,0
,survey-likert,10,276966,0.0-4.0-6.0,783528,2023/12/21 14:26:31,2023/12/21 14:33:32,17244.0,Array,rpms_task,Array,RPMShort_images/G0T1E07RPM21.png,4.0,,0
,survey-likert,11,293645,0.0-4.0-7.0,783528,2023/12/21 14:26:31,2023/12/21 14:33:32,16676.0,Array,rpms_task,Array,RPMShort_images/G0T1E08RPM23.png,3.0,,0
,survey-likert,12,312126,0.0-4.0-8.0,783528,2023/12/21 14:26:31,2023/12/21 14:33:32,18476.0,Array,rpms_task,Array,RPMShort_images/G0T1E09RPM25.png,7.0,,1
,survey-likert,13,334902,0.0-4.0-9.0,783528,2023/12/21 14:26:31,2023/12/21 14:33:32,22772.0,Array,rpms_task,Array,RPMShort_images/G0T1E10RPM30.png,5.0,,1
,survey-likert,14,377453,0.0-4.0-10.0,783528,2023/12/21 14:26:31,2023/12/21 14:33:32,42548.0,Array,rpms_task,Array,RPMShort_images/G0T1E11RPM31.png,7.0,,0
,survey-likert,15,416380,0.0-4.0-11.0,783528,2023/12/21 14:26:31,2023/12/21 14:33:32,38924.0,Array,rpms_task,Array,RPMShort_images/G0T1E12RPM35.png,1.0,,0
,html-keyboard-response,16,420995,0.0-5.0,783528,2023/12/21 14:26:31,2023/12/21 14:33:32,4610.0, ,rpms_debrief,,,,<p style='text-algin:left'>これで実験は終了です。お疲れ様でした。</p><p style='text-algin:left'>スペースキーを押して次の実験に遷移するのをお待ちください。</p>,0
1.0,fullscreen,0,4291,0.0-0.0,5451300,2023/12/21 14:27:33,2023/12/21 14:33:34,,,,,,,,0
,survey-html-form,1,9814,0.0-1.0,5451300,2023/12/21 14:27:33,2023/12/21 14:33:34,5521.0,Array,rpms_instruction,,,,,0
,survey-html-form,2,30013,0.0-2.0,5451300,2023/12/21 14:27:33,2023/12/21 14:33:34,20198.0,Array,rpms_instruction,,,,,0
,survey-html-form,3,31844,0.0-3.0,5451300,2023/12/21 14:27:33,2023/12/21 14:33:34,1830.0,Array,rpms_instruction,,,,,0
,survey-likert,4,56076,0.0-4.0-0.0,5451300,2023/12/21 14:27:33,2023/12/21 14:33:34,24228.0,Array,rpms_task,Array,RPMShort_images/G0T1E01RPM01.png,5.0,,1
,survey-likert,5,86905,0.0-4.0-1.0,5451300,2023/12/21 14:27:33,2023/12/21 14:33:34,30824.0,Array,rpms_task,Array,RPMShort_images/G0T1E02RPM04.png,4.0,,1
,survey-likert,6,124061,0.0-4.0-2.0,5451300,2023/12/21 14:27:33,2023/12/21 14:33:34,37153.0,Array,rpms_task,Array,RPMShort_images/G0T1E03RPM08.png,1.0,,1
,survey-likert,7,146281,0.0-4.0-3.0,5451300,2023/12/21 14:27:33,2023/12/21 14:33:34,22215.0,Array,rpms_task,Array,RPMShort_images/G0T1E04RPM11.png,5.0,,1
,survey-likert,8,179581,0.0-4.0-4.0,5451300,2023/12/21 14:27:33,2023/12/21 14:33:34,33296.0,Array,rpms_task,Array,RPMShort_images/G0T1E05RPM15.png,2.0,,1
,survey-likert,9,198795,0.0-4.0-5.0,5451300,2023/12/21 14:27:33,2023/12/21 14:33:34,19211.0,Array,rpms_task,Array,RPMShort_images/G0T1E06RPM18.png,7.0,,1
,survey-likert,10,205886,0.0-4.0-6.0,5451300,2023/12/21 14:27:33,2023/12/21 14:33:34,7088.0,Array,rpms_task,Array,RPMShort_images/G0T1E07RPM21.png,4.0,,0
,survey-likert,11,230832,0.0-4.0-7.0,5451300,2023/12/21 14:27:33,2023/12/21 14:33:34,24942.0,Array,rpms_task,Array,RPMShort_images/G0T1E08RPM23.png,6.0,,1
,survey-likert,12,260428,0.0-4.0-8.0,5451300,2023/12/21 14:27:33,2023/12/21 14:33:34,29593.0,Array,rpms_task,Array,RPMShort_images/G0T1E09RPM25.png,7.0,,1
,survey-likert,13,294882,0.0-4.0-9.0,5451300,2023/12/21 14:27:33,2023/12/21 14:33:34,34450.0,Array,rpms_task,Array,RPMShort_images/G0T1E10RPM30.png,4.0,,0
,survey-likert,14,324278,0.0-4.0-10.0,5451300,2023/12/21 14:27:33,2023/12/21 14:33:34,29393.0,Array,rpms_task,Array,RPMShort_images/G0T1E11RPM31.png,7.0,,0
,survey-likert,15,359208,0.0-4.0-11.0,5451300,2023/12/21 14:27:33,2023/12/21 14:33:34,34926.0,Array,rpms_task,Array,RPMShort_images/G0T1E12RPM35.png,6.0,,0
,html-keyboard-response,16,360814,0.0-5.0,5451300,2023/12/21 14:27:33,2023/12/21 14:33:34,1601.0, ,rpms_debrief,,,,<p style='text-algin:left'>これで実験は終了です。お疲れ様でした。</p><p style='text-algin:left'>スペースキーを押して次の実験に遷移するのをお待ちください。</p>,0
1.0,fullscreen,0,4463,0.0-0.0,1039845,2023/12/21 14:27:37,2023/12/21 14:33:49,,,,,,,,0
,survey-html-form,1,14511,0.0-1.0,1039845,2023/12/21 14:27:37,2023/12/21 14:33:49,10044.0,Array,rpms_instruction,,,,,0
,survey-html-form,2,23063,0.0-2.0,1039845,2023/12/21 14:27:37,2023/12/21 14:33:49,8551.0,Array,rpms_instruction,,,,,0
,survey-html-form,3,28030,0.0-3.0,1039845,2023/12/21 14:27:37,2023/12/21 14:33:49,4967.0,Array,rpms_instruction,,,,,0
,survey-likert,4,58591,0.0-4.0-0.0,1039845,2023/12/21 14:27:37,2023/12/21 14:33:49,30557.0,Array,rpms_task,Array,RPMShort_images/G0T1E01RPM01.png,5.0,,1
,survey-likert,5,92807,0.0-4.0-1.0,1039845,2023/12/21 14:27:37,2023/12/21 14:33:49,34212.0,Array,rpms_task,Array,RPMShort_images/G0T1E02RPM04.png,8.0,,0
,survey-likert,6,119310,0.0-4.0-2.0,1039845,2023/12/21 14:27:37,2023/12/21 14:33:49,26499.0,Array,rpms_task,Array,RPMShort_images/G0T1E03RPM08.png,1.0,,1
,survey-likert,7,146598,0.0-4.0-3.0,1039845,2023/12/21 14:27:37,2023/12/21 14:33:49,27286.0,Array,rpms_task,Array,RPMShort_images/G0T1E04RPM11.png,5.0,,1
,survey-likert,8,193398,0.0-4.0-4.0,1039845,2023/12/21 14:27:37,2023/12/21 14:33:49,46796.0,Array,rpms_task,Array,RPMShort_images/G0T1E05RPM15.png,6.0,,0
,survey-likert,9,207399,0.0-4.0-5.0,1039845,2023/12/21 14:27:37,2023/12/21 14:33:49,13997.0,Array,rpms_task,Array,RPMShort_images/G0T1E06RPM18.png,7.0,,1
,survey-likert,10,225239,0.0-4.0-6.0,1039845,2023/12/21 14:27:37,2023/12/21 14:33:49,17837.0,Array,rpms_task,Array,RPMShort_images/G0T1E07RPM21.png,6.0,,0
,survey-likert,11,260239,0.0-4.0-7.0,1039845,2023/12/21 14:27:37,2023/12/21 14:33:49,34997.0,Array,rpms_task,Array,RPMShort_images/G0T1E08RPM23.png,8.0,,0
,survey-likert,12,281663,0.0-4.0-8.0,1039845,2023/12/21 14:27:37,2023/12/21 14:33:49,21421.0,Array,rpms_task,Array,RPMShort_images/G0T1E09RPM25.png,7.0,,1
,survey-likert,13,305455,0.0-4.0-9.0,1039845,2023/12/21 14:27:37,2023/12/21 14:33:49,23789.0,Array,rpms_task,Array,RPMShort_images/G0T1E10RPM30.png,8.0,,0
,survey-likert,14,342262,0.0-4.0-10.0,1039845,2023/12/21 14:27:37,2023/12/21 14:33:49,36805.0,Array,rpms_task,Array,RPMShort_images/G0T1E11RPM31.png,8.0,,0
,survey-likert,15,369694,0.0-4.0-11.0,1039845,2023/12/21 14:27:37,2023/12/21 14:33:49,27429.0,Array,rpms_task,Array,RPMShort_images/G0T1E12RPM35.png,5.0,,0
,html-keyboard-response,16,371527,0.0-5.0,1039845,2023/12/21 14:27:37,2023/12/21 14:33:49,1829.0, ,rpms_debrief,,,,<p style='text-algin:left'>これで実験は終了です。お疲れ様でした。</p><p style='text-algin:left'>スペースキーを押して次の実験に遷移するのをお待ちください。</p>,0
1.0,fullscreen,0,4629,0.0-0.0,2511054,2023/12/21 14:28:12,2023/12/21 14:34:01,,,,,,,,0
,survey-html-form,1,15732,0.0-1.0,2511054,2023/12/21 14:28:12,2023/12/21 14:34:01,11103.0,Array,rpms_instruction,,,,,0
,survey-html-form,2,28522,0.0-2.0,2511054,2023/12/21 14:28:12,2023/12/21 14:34:01,12789.0,Array,rpms_instruction,,,,,0
,survey-html-form,3,37200,0.0-3.0,2511054,2023/12/21 14:28:12,2023/12/21 14:34:01,8677.0,Array,rpms_instruction,,,,,0
,survey-likert,4,59856,0.0-4.0-0.0,2511054,2023/12/21 14:28:12,2023/12/21 14:34:01,22655.0,Array,rpms_task,Array,RPMShort_images/G0T1E01RPM01.png,5.0,,1
,survey-likert,5,79130,0.0-4.0-1.0,2511054,2023/12/21 14:28:12,2023/12/21 14:34:01,19272.0,Array,rpms_task,Array,RPMShort_images/G0T1E02RPM04.png,8.0,,0
,survey-likert,6,91862,0.0-4.0-2.0,2511054,2023/12/21 14:28:12,2023/12/21 14:34:01,12730.0,Array,rpms_task,Array,RPMShort_images/G0T1E03RPM08.png,1.0,,1
,survey-likert,7,115290,0.0-4.0-3.0,2511054,2023/12/21 14:28:12,2023/12/21 14:34:01,23426.0,Array,rpms_task,Array,RPMShort_images/G0T1E04RPM11.png,5.0,,1
,survey-likert,8,147293,0.0-4.0-4.0,2511054,2023/12/21 14:28:12,2023/12/21 14:34:01,32002.0,Array,rpms_task,Array,RPMShort_images/G0T1E05RPM15.png,5.0,,0
,survey-likert,9,166747,0.0-4.0-5.0,2511054,2023/12/21 14:28:12,2023/12/21 14:34:01,19452.0,Array,rpms_task,Array,RPMShort_images/G0T1E06RPM18.png,1.0,,0
,survey-likert,10,204003,0.0-4.0-6.0,2511054,2023/12/21 14:28:12,2023/12/21 14:34:01,37254.0,Array,rpms_task,Array,RPMShort_images/G0T1E07RPM21.png,1.0,,0
,survey-likert,11,228616,0.0-4.0-7.0,2511054,2023/12/21 14:28:12,2023/12/21 14:34:01,24611.0,Array,rpms_task,Array,RPMShort_images/G0T1E08RPM23.png,6.0,,1
,survey-likert,12,255504,0.0-4.0-8.0,2511054,2023/12/21 14:28:12,2023/12/21 14:34:01,26886.0,Array,rpms_task,Array,RPMShort_images/G0T1E09RPM25.png,2.0,,0
,survey-likert,13,288661,0.0-4.0-9.0,2511054,2023/12/21 14:28:12,2023/12/21 14:34:01,33156.0,Array,rpms_task,Array,RPMShort_images/G0T1E10RPM30.png,4.0,,0
,survey-likert,14,326780,0.0-4.0-10.0,2511054,2023/12/21 14:28:12,2023/12/21 14:34:01,38116.0,Array,rpms_task,Array,RPMShort_images/G0T1E11RPM31.png,7.0,,0
,survey-likert,15,345441,0.0-4.0-11.0,2511054,2023/12/21 14:28:12,2023/12/21 14:34:01,18660.0,Array,rpms_task,Array,RPMShort_images/G0T1E12RPM35.png,3.0,,1
,html-keyboard-response,16,348438,0.0-5.0,2511054,2023/12/21 14:28:12,2023/12/21 14:34:01,2995.0, ,rpms_debrief,,,,<p style='text-algin:left'>これで実験は終了です。お疲れ様でした。</p><p style='text-algin:left'>スペースキーを押して次の実験に遷移するのをお待ちください。</p>,0
1.0,fullscreen,0,2779,0.0-0.0,379565,2023/12/21 14:26:22,2023/12/21 14:34:30,,,,,,,,0
,survey-html-form,1,16172,0.0-1.0,379565,2023/12/21 14:26:22,2023/12/21 14:34:30,13391.0,Array,rpms_instruction,,,,,0
,survey-html-form,2,37916,0.0-2.0,379565,2023/12/21 14:26:22,2023/12/21 14:34:30,21741.0,Array,rpms_instruction,,,,,0
,survey-html-form,3,50556,0.0-3.0,379565,2023/12/21 14:26:22,2023/12/21 14:34:30,12638.0,Array,rpms_instruction,,,,,0
,survey-likert,4,89854,0.0-4.0-0.0,379565,2023/12/21 14:26:22,2023/12/21 14:34:30,39291.0,Array,rpms_task,Array,RPMShort_images/G0T1E01RPM01.png,5.0,,1
,survey-likert,5,124268,0.0-4.0-1.0,379565,2023/12/21 14:26:22,2023/12/21 14:34:30,34406.0,Array,rpms_task,Array,RPMShort_images/G0T1E02RPM04.png,3.0,,0
,survey-likert,6,150876,0.0-4.0-2.0,379565,2023/12/21 14:26:22,2023/12/21 14:34:30,26599.0,Array,rpms_task,Array,RPMShort_images/G0T1E03RPM08.png,1.0,,1
,survey-likert,7,211588,0.0-4.0-3.0,379565,2023/12/21 14:26:22,2023/12/21 14:34:30,60703.0,Array,rpms_task,Array,RPMShort_images/G0T1E04RPM11.png,5.0,,1
,survey-likert,8,272580,0.0-4.0-4.0,379565,2023/12/21 14:26:22,2023/12/21 14:34:30,60983.0,Array,rpms_task,Array,RPMShort_images/G0T1E05RPM15.png,2.0,,1
,survey-likert,9,300292,0.0-4.0-5.0,379565,2023/12/21 14:26:22,2023/12/21 14:34:30,27703.0,Array,rpms_task,Array,RPMShort_images/G0T1E06RPM18.png,1.0,,0
,survey-likert,10,317020,0.0-4.0-6.0,379565,2023/12/21 14:26:22,2023/12/21 14:34:30,16719.0,Array,rpms_task,Array,RPMShort_images/G0T1E07RPM21.png,8.0,,1
,survey-likert,11,328060,0.0-4.0-7.0,379565,2023/12/21 14:26:22,2023/12/21 14:34:30,11031.0,Array,rpms_task,Array,RPMShort_images/G0T1E08RPM23.png,1.0,,0
,survey-likert,12,355652,0.0-4.0-8.0,379565,2023/12/21 14:26:22,2023/12/21 14:34:30,27583.0,Array,rpms_task,Array,RPMShort_images/G0T1E09RPM25.png,4.0,,0
,survey-likert,13,417949,0.0-4.0-9.0,379565,2023/12/21 14:26:22,2023/12/21 14:34:30,62289.0,Array,rpms_task,Array,RPMShort_images/G0T1E10RPM30.png,2.0,,0
,survey-likert,14,463363,0.0-4.0-10.0,379565,2023/12/21 14:26:22,2023/12/21 14:34:30,45403.0,Array,rpms_task,Array,RPMShort_images/G0T1E11RPM31.png,4.0,,1
,survey-likert,15,485075,0.0-4.0-11.0,379565,2023/12/21 14:26:22,2023/12/21 14:34:30,21706.0,Array,rpms_task,Array,RPMShort_images/G0T1E12RPM35.png,1.0,,0
,html-keyboard-response,16,488290,0.0-5.0,379565,2023/12/21 14:26:22,2023/12/21 14:34:30,3208.0, ,rpms_debrief,,,,<p style='text-algin:left'>これで実験は終了です。お疲れ様でした。</p><p style='text-algin:left'>スペースキーを押して次の実験に遷移するのをお待ちください。</p>,0
1.0,fullscreen,0,9285,0.0-0.0,1610899,2023/12/21 14:26:19,2023/12/21 14:34:30,,,,,,,,0
,survey-html-form,1,21786,0.0-1.0,1610899,2023/12/21 14:26:19,2023/12/21 14:34:30,12500.0,Array,rpms_instruction,,,,,0
,survey-html-form,2,33298,0.0-2.0,1610899,2023/12/21 14:26:19,2023/12/21 14:34:30,11511.0,Array,rpms_instruction,,,,,0
,survey-html-form,3,37498,0.0-3.0,1610899,2023/12/21 14:26:19,2023/12/21 14:34:30,4200.0,Array,rpms_instruction,,,,,0
,survey-likert,4,62660,0.0-4.0-0.0,1610899,2023/12/21 14:26:19,2023/12/21 14:34:30,25160.0,Array,rpms_task,Array,RPMShort_images/G0T1E01RPM01.png,5.0,,1
,survey-likert,5,87419,0.0-4.0-1.0,1610899,2023/12/21 14:26:19,2023/12/21 14:34:30,24757.0,Array,rpms_task,Array,RPMShort_images/G0T1E02RPM04.png,4.0,,1
,survey-likert,6,119844,0.0-4.0-2.0,1610899,2023/12/21 14:26:19,2023/12/21 14:34:30,32422.0,Array,rpms_task,Array,RPMShort_images/G0T1E03RPM08.png,1.0,,1
,survey-likert,7,151211,0.0-4.0-3.0,1610899,2023/12/21 14:26:19,2023/12/21 14:34:30,31366.0,Array,rpms_task,Array,RPMShort_images/G0T1E04RPM11.png,5.0,,1
,survey-likert,8,178243,0.0-4.0-4.0,1610899,2023/12/21 14:26:19,2023/12/21 14:34:30,27030.0,Array,rpms_task,Array,RPMShort_images/G0T1E05RPM15.png,2.0,,1
,survey-likert,9,195867,0.0-4.0-5.0,1610899,2023/12/21 14:26:19,2023/12/21 14:34:30,17622.0,Array,rpms_task,Array,RPMShort_images/G0T1E06RPM18.png,1.0,,0
,survey-likert,10,219787,0.0-4.0-6.0,1610899,2023/12/21 14:26:19,2023/12/21 14:34:30,23918.0,Array,rpms_task,Array,RPMShort_images/G0T1E07RPM21.png,4.0,,0
,survey-likert,11,267227,0.0-4.0-7.0,1610899,2023/12/21 14:26:19,2023/12/21 14:34:30,47439.0,Array,rpms_task,Array,RPMShort_images/G0T1E08RPM23.png,5.0,,0
,survey-likert,12,293939,0.0-4.0-8.0,1610899,2023/12/21 14:26:19,2023/12/21 14:34:30,26710.0,Array,rpms_task,Array,RPMShort_images/G0T1E09RPM25.png,7.0,,1
,survey-likert,13,368795,0.0-4.0-9.0,1610899,2023/12/21 14:26:19,2023/12/21 14:34:30,74854.0,Array,rpms_task,Array,RPMShort_images/G0T1E10RPM30.png,2.0,,0
,survey-likert,14,450323,0.0-4.0-10.0,1610899,2023/12/21 14:26:19,2023/12/21 14:34:30,81526.0,Array,rpms_task,Array,RPMShort_images/G0T1E11RPM31.png,8.0,,0
,survey-likert,15,487219,0.0-4.0-11.0,1610899,2023/12/21 14:26:19,2023/12/21 14:34:30,36894.0,Array,rpms_task,Array,RPMShort_images/G0T1E12RPM35.png,1.0,,0
,html-keyboard-response,16,490047,0.0-5.0,1610899,2023/12/21 14:26:19,2023/12/21 14:34:30,2826.0, ,rpms_debrief,,,,<p style='text-algin:left'>これで実験は終了です。お疲れ様でした。</p><p style='text-algin:left'>スペースキーを押して次の実験に遷移するのをお待ちください。</p>,0
1.0,fullscreen,0,8790,0.0-0.0,2810580,2023/12/21 14:26:01,2023/12/21 14:34:57,,,,,,,,0
,survey-html-form,1,19802,0.0-1.0,2810580,2023/12/21 14:26:01,2023/12/21 14:34:57,11007.0,Array,rpms_instruction,,,,,0
,survey-html-form,2,29391,0.0-2.0,2810580,2023/12/21 14:26:01,2023/12/21 14:34:57,9588.0,Array,rpms_instruction,,,,,0
,survey-html-form,3,37645,0.0-3.0,2810580,2023/12/21 14:26:01,2023/12/21 14:34:57,8253.0,Array,rpms_instruction,,,,,0
,survey-likert,4,62855,0.0-4.0-0.0,2810580,2023/12/21 14:26:01,2023/12/21 14:34:57,25204.0,Array,rpms_task,Array,RPMShort_images/G0T1E01RPM01.png,5.0,,1
,survey-likert,5,80072,0.0-4.0-1.0,2810580,2023/12/21 14:26:01,2023/12/21 14:34:57,17213.0,Array,rpms_task,Array,RPMShort_images/G0T1E02RPM04.png,4.0,,1
,survey-likert,6,93635,0.0-4.0-2.0,2810580,2023/12/21 14:26:01,2023/12/21 14:34:57,13559.0,Array,rpms_task,Array,RPMShort_images/G0T1E03RPM08.png,1.0,,1
,survey-likert,7,107704,0.0-4.0-3.0,2810580,2023/12/21 14:26:01,2023/12/21 14:34:57,14066.0,Array,rpms_task,Array,RPMShort_images/G0T1E04RPM11.png,5.0,,1
,survey-likert,8,132268,0.0-4.0-4.0,2810580,2023/12/21 14:26:01,2023/12/21 14:34:57,24561.0,Array,rpms_task,Array,RPMShort_images/G0T1E05RPM15.png,2.0,,1
,survey-likert,9,160974,0.0-4.0-5.0,2810580,2023/12/21 14:26:01,2023/12/21 14:34:57,28703.0,Array,rpms_task,Array,RPMShort_images/G0T1E06RPM18.png,3.0,,0
,survey-likert,10,201832,0.0-4.0-6.0,2810580,2023/12/21 14:26:01,2023/12/21 14:34:57,40854.0,Array,rpms_task,Array,RPMShort_images/G0T1E07RPM21.png,4.0,,0
,survey-likert,11,287615,0.0-4.0-7.0,2810580,2023/12/21 14:26:01,2023/12/21 14:34:57,85780.0,Array,rpms_task,Array,RPMShort_images/G0T1E08RPM23.png,5.0,,0
,survey-likert,12,322206,0.0-4.0-8.0,2810580,2023/12/21 14:26:01,2023/12/21 14:34:57,34588.0,Array,rpms_task,Array,RPMShort_images/G0T1E09RPM25.png,7.0,,1
,survey-likert,13,417654,0.0-4.0-9.0,2810580,2023/12/21 14:26:01,2023/12/21 14:34:57,95445.0,Array,rpms_task,Array,RPMShort_images/G0T1E10RPM30.png,5.0,,1
,survey-likert,14,476331,0.0-4.0-10.0,2810580,2023/12/21 14:26:01,2023/12/21 14:34:57,58674.0,Array,rpms_task,Array,RPMShort_images/G0T1E11RPM31.png,4.0,,1
,survey-likert,15,533290,0.0-4.0-11.0,2810580,2023/12/21 14:26:01,2023/12/21 14:34:57,56956.0,Array,rpms_task,Array,RPMShort_images/G0T1E12RPM35.png,2.0,,0
,html-keyboard-response,16,535359,0.0-5.0,2810580,2023/12/21 14:26:01,2023/12/21 14:34:57,2066.0, ,rpms_debrief,,,,<p style='text-algin:left'>これで実験は終了です。お疲れ様でした。</p><p style='text-algin:left'>スペースキーを押して次の実験に遷移するのをお待ちください。</p>,0
1.0,fullscreen,0,12066,0.0-0.0,5138531,2023/12/21 14:28:06,2023/12/21 14:35:00,,,,,,,,0
,survey-html-form,1,25786,0.0-1.0,5138531,2023/12/21 14:28:06,2023/12/21 14:35:00,13720.0,Array,rpms_instruction,,,,,0
,survey-html-form,2,37370,0.0-2.0,5138531,2023/12/21 14:28:06,2023/12/21 14:35:00,11583.0,Array,rpms_instruction,,,,,0
,survey-html-form,3,48682,0.0-3.0,5138531,2023/12/21 14:28:06,2023/12/21 14:35:00,11311.0,Array,rpms_instruction,,,,,0
,survey-likert,4,72890,0.0-4.0-0.0,5138531,2023/12/21 14:28:06,2023/12/21 14:35:00,24204.0,Array,rpms_task,Array,RPMShort_images/G0T1E01RPM01.png,5.0,,1
,survey-likert,5,86969,0.0-4.0-1.0,5138531,2023/12/21 14:28:06,2023/12/21 14:35:00,14077.0,Array,rpms_task,Array,RPMShort_images/G0T1E02RPM04.png,4.0,,1
,survey-likert,6,126186,0.0-4.0-2.0,5138531,2023/12/21 14:28:06,2023/12/21 14:35:00,39214.0,Array,rpms_task,Array,RPMShort_images/G0T1E03RPM08.png,1.0,,1
,survey-likert,7,142842,0.0-4.0-3.0,5138531,2023/12/21 14:28:06,2023/12/21 14:35:00,16654.0,Array,rpms_task,Array,RPMShort_images/G0T1E04RPM11.png,5.0,,1
,survey-likert,8,160889,0.0-4.0-4.0,5138531,2023/12/21 14:28:06,2023/12/21 14:35:00,18044.0,Array,rpms_task,Array,RPMShort_images/G0T1E05RPM15.png,2.0,,1
,survey-likert,9,196171,0.0-4.0-5.0,5138531,2023/12/21 14:28:06,2023/12/21 14:35:00,35279.0,Array,rpms_task,Array,RPMShort_images/G0T1E06RPM18.png,1.0,,0
,survey-likert,10,215842,0.0-4.0-6.0,5138531,2023/12/21 14:28:06,2023/12/21 14:35:00,19668.0,Array,rpms_task,Array,RPMShort_images/G0T1E07RPM21.png,4.0,,0
,survey-likert,11,234586,0.0-4.0-7.0,5138531,2023/12/21 14:28:06,2023/12/21 14:35:00,18741.0,Array,rpms_task,Array,RPMShort_images/G0T1E08RPM23.png,6.0,,1
,survey-likert,12,271770,0.0-4.0-8.0,5138531,2023/12/21 14:28:06,2023/12/21 14:35:00,37181.0,Array,rpms_task,Array,RPMShort_images/G0T1E09RPM25.png,7.0,,1
,survey-likert,13,306841,0.0-4.0-9.0,5138531,2023/12/21 14:28:06,2023/12/21 14:35:00,35069.0,Array,rpms_task,Array,RPMShort_images/G0T1E10RPM30.png,1.0,,0
,survey-likert,14,372666,0.0-4.0-10.0,5138531,2023/12/21 14:28:06,2023/12/21 14:35:00,65821.0,Array,rpms_task,Array,RPMShort_images/G0T1E11RPM31.png,3.0,,0
,survey-likert,15,410881,0.0-4.0-11.0,5138531,2023/12/21 14:28:06,2023/12/21 14:35:00,38213.0,Array,rpms_task,Array,RPMShort_images/G0T1E12RPM35.png,3.0,,1
,html-keyboard-response,16,413258,0.0-5.0,5138531,2023/12/21 14:28:06,2023/12/21 14:35:00,2374.0, ,rpms_debrief,,,,<p style='text-algin:left'>これで実験は終了です。お疲れ様でした。</p><p style='text-algin:left'>スペースキーを押して次の実験に遷移するのをお待ちください。</p>,0
1.0,fullscreen,0,3811,0.0-0.0,4523774,2023/12/21 14:30:16,2023/12/21 14:35:03,,,,,,,,0
,survey-html-form,1,14297,0.0-1.0,4523774,2023/12/21 14:30:16,2023/12/21 14:35:03,10485.0,Array,rpms_instruction,,,,,0
,survey-html-form,2,27481,0.0-2.0,4523774,2023/12/21 14:30:16,2023/12/21 14:35:03,13184.0,Array,rpms_instruction,,,,,0
,survey-html-form,3,34754,0.0-3.0,4523774,2023/12/21 14:30:16,2023/12/21 14:35:03,7273.0,Array,rpms_instruction,,,,,0
,survey-likert,4,48235,0.0-4.0-0.0,4523774,2023/12/21 14:30:16,2023/12/21 14:35:03,13479.0,Array,rpms_task,Array,RPMShort_images/G0T1E01RPM01.png,5.0,,1
,survey-likert,5,60685,0.0-4.0-1.0,4523774,2023/12/21 14:30:16,2023/12/21 14:35:03,12447.0,Array,rpms_task,Array,RPMShort_images/G0T1E02RPM04.png,8.0,,0
,survey-likert,6,81419,0.0-4.0-2.0,4523774,2023/12/21 14:30:16,2023/12/21 14:35:03,20731.0,Array,rpms_task,Array,RPMShort_images/G0T1E03RPM08.png,8.0,,0
,survey-likert,7,104421,0.0-4.0-3.0,4523774,2023/12/21 14:30:16,2023/12/21 14:35:03,22999.0,Array,rpms_task,Array,RPMShort_images/G0T1E04RPM11.png,5.0,,1
,survey-likert,8,136281,0.0-4.0-4.0,4523774,2023/12/21 14:30:16,2023/12/21 14:35:03,31858.0,Array,rpms_task,Array,RPMShort_images/G0T1E05RPM15.png,2.0,,1
,survey-likert,9,170864,0.0-4.0-5.0,4523774,2023/12/21 14:30:16,2023/12/21 14:35:03,34581.0,Array,rpms_task,Array,RPMShort_images/G0T1E06RPM18.png,8.0,,0
,survey-likert,10,187990,0.0-4.0-6.0,4523774,2023/12/21 14:30:16,2023/12/21 14:35:03,17124.0,Array,rpms_task,Array,RPMShort_images/G0T1E07RPM21.png,4.0,,0
,survey-likert,11,205709,0.0-4.0-7.0,4523774,2023/12/21 14:30:16,2023/12/21 14:35:03,17715.0,Array,rpms_task,Array,RPMShort_images/G0T1E08RPM23.png,4.0,,0
,survey-likert,12,221207,0.0-4.0-8.0,4523774,2023/12/21 14:30:16,2023/12/21 14:35:03,15496.0,Array,rpms_task,Array,RPMShort_images/G0T1E09RPM25.png,7.0,,1
,survey-likert,13,243821,0.0-4.0-9.0,4523774,2023/12/21 14:30:16,2023/12/21 14:35:03,22612.0,Array,rpms_task,Array,RPMShort_images/G0T1E10RPM30.png,1.0,,0
,survey-likert,14,268895,0.0-4.0-10.0,4523774,2023/12/21 14:30:16,2023/12/21 14:35:03,25072.0,Array,rpms_task,Array,RPMShort_images/G0T1E11RPM31.png,4.0,,1
,survey-likert,15,285077,0.0-4.0-11.0,4523774,2023/12/21 14:30:16,2023/12/21 14:35:03,16180.0,Array,rpms_task,Array,RPMShort_images/G0T1E12RPM35.png,1.0,,0
,html-keyboard-response,16,287007,0.0-5.0,4523774,2023/12/21 14:30:16,2023/12/21 14:35:03,1928.0, ,rpms_debrief,,,,<p style='text-algin:left'>これで実験は終了です。お疲れ様でした。</p><p style='text-algin:left'>スペースキーを押して次の実験に遷移するのをお待ちください。</p>,0
1.0,fullscreen,0,4666,0.0-0.0,2613017,2023/12/21 14:27:19,2023/12/21 14:35:17,,,,,,,,0
,survey-html-form,1,13989,0.0-1.0,2613017,2023/12/21 14:27:19,2023/12/21 14:35:17,9321.0,Array,rpms_instruction,,,,,0
,survey-html-form,2,29673,0.0-2.0,2613017,2023/12/21 14:27:19,2023/12/21 14:35:17,15683.0,Array,rpms_instruction,,,,,0
,survey-html-form,3,35971,0.0-3.0,2613017,2023/12/21 14:27:19,2023/12/21 14:35:17,6296.0,Array,rpms_instruction,,,,,0
,survey-likert,4,101702,0.0-4.0-0.0,2613017,2023/12/21 14:27:19,2023/12/21 14:35:17,65727.0,Array,rpms_task,Array,RPMShort_images/G0T1E01RPM01.png,8.0,,0
,survey-likert,5,152355,0.0-4.0-1.0,2613017,2023/12/21 14:27:19,2023/12/21 14:35:17,50647.0,Array,rpms_task,Array,RPMShort_images/G0T1E02RPM04.png,8.0,,0
,survey-likert,6,178461,0.0-4.0-2.0,2613017,2023/12/21 14:27:19,2023/12/21 14:35:17,26100.0,Array,rpms_task,Array,RPMShort_images/G0T1E03RPM08.png,1.0,,1
,survey-likert,7,206179,0.0-4.0-3.0,2613017,2023/12/21 14:27:19,2023/12/21 14:35:17,27712.0,Array,rpms_task,Array,RPMShort_images/G0T1E04RPM11.png,5.0,,1
,survey-likert,8,239456,0.0-4.0-4.0,2613017,2023/12/21 14:27:19,2023/12/21 14:35:17,33271.0,Array,rpms_task,Array,RPMShort_images/G0T1E05RPM15.png,7.0,,0
,survey-likert,9,280481,0.0-4.0-5.0,2613017,2023/12/21 14:27:19,2023/12/21 14:35:17,41020.0,Array,rpms_task,Array,RPMShort_images/G0T1E06RPM18.png,8.0,,0
,survey-likert,10,307031,0.0-4.0-6.0,2613017,2023/12/21 14:27:19,2023/12/21 14:35:17,26545.0,Array,rpms_task,Array,RPMShort_images/G0T1E07RPM21.png,4.0,,0
,survey-likert,11,336503,0.0-4.0-7.0,2613017,2023/12/21 14:27:19,2023/12/21 14:35:17,29466.0,Array,rpms_task,Array,RPMShort_images/G0T1E08RPM23.png,1.0,,0
,survey-likert,12,362597,0.0-4.0-8.0,2613017,2023/12/21 14:27:19,2023/12/21 14:35:17,26088.0,Array,rpms_task,Array,RPMShort_images/G0T1E09RPM25.png,8.0,,0
,survey-likert,13,393191,0.0-4.0-9.0,2613017,2023/12/21 14:27:19,2023/12/21 14:35:17,30589.0,Array,rpms_task,Array,RPMShort_images/G0T1E10RPM30.png,5.0,,1
,survey-likert,14,405132,0.0-4.0-10.0,2613017,2023/12/21 14:27:19,2023/12/21 14:35:17,11936.0,Array,rpms_task,Array,RPMShort_images/G0T1E11RPM31.png,3.0,,0
,survey-likert,15,473641,0.0-4.0-11.0,2613017,2023/12/21 14:27:19,2023/12/21 14:35:17,68503.0,Array,rpms_task,Array,RPMShort_images/G0T1E12RPM35.png,1.0,,0
,html-keyboard-response,16,478098,0.0-5.0,2613017,2023/12/21 14:27:19,2023/12/21 14:35:17,4452.0, ,rpms_debrief,,,,<p style='text-algin:left'>これで実験は終了です。お疲れ様でした。</p><p style='text-algin:left'>スペースキーを押して次の実験に遷移するのをお待ちください。</p>,0
1.0,fullscreen,0,4638,0.0-0.0,94338,2023/12/20 21:29:06,2023/12/20 21:35:19,,,,,,,,0
,survey-html-form,1,14415,0.0-1.0,94338,2023/12/20 21:29:06,2023/12/20 21:35:19,9777.0,Array,rpms_instruction,,,,,0
,survey-html-form,2,25581,0.0-2.0,94338,2023/12/20 21:29:06,2023/12/20 21:35:19,11165.0,Array,rpms_instruction,,,,,0
,survey-html-form,3,28374,0.0-3.0,94338,2023/12/20 21:29:06,2023/12/20 21:35:19,2793.0,Array,rpms_instruction,,,,,0
,survey-likert,4,58618,0.0-4.0-0.0,94338,2023/12/20 21:29:06,2023/12/20 21:35:19,30243.0,Array,rpms_task,Array,RPMShort_images/G0T1E01RPM01.png,6.0,,0
,survey-likert,5,70164,0.0-4.0-1.0,94338,2023/12/20 21:29:06,2023/12/20 21:35:19,11544.0,Array,rpms_task,Array,RPMShort_images/G0T1E02RPM04.png,4.0,,1
,survey-likert,6,101495,0.0-4.0-2.0,94338,2023/12/20 21:29:06,2023/12/20 21:35:19,31330.0,Array,rpms_task,Array,RPMShort_images/G0T1E03RPM08.png,8.0,,0
,survey-likert,7,134611,0.0-4.0-3.0,94338,2023/12/20 21:29:06,2023/12/20 21:35:19,33116.0,Array,rpms_task,Array,RPMShort_images/G0T1E04RPM11.png,5.0,,1
,survey-likert,8,162401,0.0-4.0-4.0,94338,2023/12/20 21:29:06,2023/12/20 21:35:19,27789.0,Array,rpms_task,Array,RPMShort_images/G0T1E05RPM15.png,6.0,,0
,survey-likert,9,184689,0.0-4.0-5.0,94338,2023/12/20 21:29:06,2023/12/20 21:35:19,22286.0,Array,rpms_task,Array,RPMShort_images/G0T1E06RPM18.png,5.0,,0
,survey-likert,10,210803,0.0-4.0-6.0,94338,2023/12/20 21:29:06,2023/12/20 21:35:19,26113.0,Array,rpms_task,Array,RPMShort_images/G0T1E07RPM21.png,4.0,,0
,survey-likert,11,243240,0.0-4.0-7.0,94338,2023/12/20 21:29:06,2023/12/20 21:35:19,32437.0,Array,rpms_task,Array,RPMShort_images/G0T1E08RPM23.png,6.0,,1
,survey-likert,12,265055,0.0-4.0-8.0,94338,2023/12/20 21:29:06,2023/12/20 21:35:19,21814.0,Array,rpms_task,Array,RPMShort_images/G0T1E09RPM25.png,7.0,,1
,survey-likert,13,292586,0.0-4.0-9.0,94338,2023/12/20 21:29:06,2023/12/20 21:35:19,27530.0,Array,rpms_task,Array,RPMShort_images/G0T1E10RPM30.png,4.0,,0
,survey-likert,14,324237,0.0-4.0-10.0,94338,2023/12/20 21:29:06,2023/12/20 21:35:19,31651.0,Array,rpms_task,Array,RPMShort_images/G0T1E11RPM31.png,7.0,,0
,survey-likert,15,369502,0.0-4.0-11.0,94338,2023/12/20 21:29:06,2023/12/20 21:35:19,45265.0,Array,rpms_task,Array,RPMShort_images/G0T1E12RPM35.png,1.0,,0
,html-keyboard-response,16,372741,0.0-5.0,94338,2023/12/20 21:29:06,2023/12/20 21:35:19,3236.0, ,rpms_debrief,,,,<p style='text-algin:left'>これで実験は終了です。お疲れ様でした。</p><p style='text-algin:left'>スペースキーを押して次の実験に遷移するのをお待ちください。</p>,0
1.0,fullscreen,0,5766,0.0-0.0,5604782,2023/12/21 14:25:56,2023/12/21 14:35:22,,,,,,,,0
,survey-html-form,1,17719,0.0-1.0,5604782,2023/12/21 14:25:56,2023/12/21 14:35:22,11949.0,Array,rpms_instruction,,,,,0
,survey-html-form,2,22812,0.0-2.0,5604782,2023/12/21 14:25:56,2023/12/21 14:35:22,5091.0,Array,rpms_instruction,,,,,0
,survey-html-form,3,28296,0.0-3.0,5604782,2023/12/21 14:25:56,2023/12/21 14:35:22,5484.0,Array,rpms_instruction,,,,,0
,survey-likert,4,59479,0.0-4.0-0.0,5604782,2023/12/21 14:25:56,2023/12/21 14:35:22,31168.0,Array,rpms_task,Array,RPMShort_images/G0T1E01RPM01.png,4.0,,0
,survey-likert,5,113773,0.0-4.0-1.0,5604782,2023/12/21 14:25:56,2023/12/21 14:35:22,54292.0,Array,rpms_task,Array,RPMShort_images/G0T1E02RPM04.png,4.0,,1
,survey-likert,6,156987,0.0-4.0-2.0,5604782,2023/12/21 14:25:56,2023/12/21 14:35:22,43212.0,Array,rpms_task,Array,RPMShort_images/G0T1E03RPM08.png,1.0,,1
,survey-likert,7,197283,0.0-4.0-3.0,5604782,2023/12/21 14:25:56,2023/12/21 14:35:22,40293.0,Array,rpms_task,Array,RPMShort_images/G0T1E04RPM11.png,5.0,,1
,survey-likert,8,264154,0.0-4.0-4.0,5604782,2023/12/21 14:25:56,2023/12/21 14:35:22,66868.0,Array,rpms_task,Array,RPMShort_images/G0T1E05RPM15.png,2.0,,1
,survey-likert,9,308568,0.0-4.0-5.0,5604782,2023/12/21 14:25:56,2023/12/21 14:35:22,44411.0,Array,rpms_task,Array,RPMShort_images/G0T1E06RPM18.png,7.0,,1
,survey-likert,10,345596,0.0-4.0-6.0,5604782,2023/12/21 14:25:56,2023/12/21 14:35:22,37026.0,Array,rpms_task,Array,RPMShort_images/G0T1E07RPM21.png,8.0,,1
,survey-likert,11,402680,0.0-4.0-7.0,5604782,2023/12/21 14:25:56,2023/12/21 14:35:22,57082.0,Array,rpms_task,Array,RPMShort_images/G0T1E08RPM23.png,6.0,,1
,survey-likert,12,433140,0.0-4.0-8.0,5604782,2023/12/21 14:25:56,2023/12/21 14:35:22,30457.0,Array,rpms_task,Array,RPMShort_images/G0T1E09RPM25.png,7.0,,1
,survey-likert,13,457831,0.0-4.0-9.0,5604782,2023/12/21 14:25:56,2023/12/21 14:35:22,24689.0,Array,rpms_task,Array,RPMShort_images/G0T1E10RPM30.png,5.0,,1
,survey-likert,14,497577,0.0-4.0-10.0,5604782,2023/12/21 14:25:56,2023/12/21 14:35:22,39743.0,Array,rpms_task,Array,RPMShort_images/G0T1E11RPM31.png,4.0,,1
,survey-likert,15,563814,0.0-4.0-11.0,5604782,2023/12/21 14:25:56,2023/12/21 14:35:22,66235.0,Array,rpms_task,Array,RPMShort_images/G0T1E12RPM35.png,3.0,,1
,html-keyboard-response,16,565997,0.0-5.0,5604782,2023/12/21 14:25:56,2023/12/21 14:35:22,2175.0, ,rpms_debrief,,,,<p style='text-algin:left'>これで実験は終了です。お疲れ様でした。</p><p style='text-algin:left'>スペースキーを押して次の実験に遷移するのをお待ちください。</p>,0
1.0,fullscreen,0,4164,0.0-0.0,1673150,2023/12/21 14:29:19,2023/12/21 14:35:51,,,,,,,,0
,survey-html-form,1,9161,0.0-1.0,1673150,2023/12/21 14:29:19,2023/12/21 14:35:51,4995.0,Array,rpms_instruction,,,,,0
,survey-html-form,2,15001,0.0-2.0,1673150,2023/12/21 14:29:19,2023/12/21 14:35:51,5840.0,Array,rpms_instruction,,,,,0
,survey-html-form,3,20225,0.0-3.0,1673150,2023/12/21 14:29:19,2023/12/21 14:35:51,5223.0,Array,rpms_instruction,,,,,0
,survey-likert,4,40129,0.0-4.0-0.0,1673150,2023/12/21 14:29:19,2023/12/21 14:35:51,19903.0,Array,rpms_task,Array,RPMShort_images/G0T1E01RPM01.png,5.0,,1
,survey-likert,5,50433,0.0-4.0-1.0,1673150,2023/12/21 14:29:19,2023/12/21 14:35:51,10303.0,Array,rpms_task,Array,RPMShort_images/G0T1E02RPM04.png,4.0,,1
,survey-likert,6,62857,0.0-4.0-2.0,1673150,2023/12/21 14:29:19,2023/12/21 14:35:51,12422.0,Array,rpms_task,Array,RPMShort_images/G0T1E03RPM08.png,1.0,,1
,survey-likert,7,72785,0.0-4.0-3.0,1673150,2023/12/21 14:29:19,2023/12/21 14:35:51,9926.0,Array,rpms_task,Array,RPMShort_images/G0T1E04RPM11.png,5.0,,1
,survey-likert,8,88394,0.0-4.0-4.0,1673150,2023/12/21 14:29:19,2023/12/21 14:35:51,15607.0,Array,rpms_task,Array,RPMShort_images/G0T1E05RPM15.png,2.0,,1
,survey-likert,9,125481,0.0-4.0-5.0,1673150,2023/12/21 14:29:19,2023/12/21 14:35:51,37085.0,Array,rpms_task,Array,RPMShort_images/G0T1E06RPM18.png,7.0,,1
,survey-likert,10,178704,0.0-4.0-6.0,1673150,2023/12/21 14:29:19,2023/12/21 14:35:51,53222.0,Array,rpms_task,Array,RPMShort_images/G0T1E07RPM21.png,8.0,,1
,survey-likert,11,228057,0.0-4.0-7.0,1673150,2023/12/21 14:29:19,2023/12/21 14:35:51,49350.0,Array,rpms_task,Array,RPMShort_images/G0T1E08RPM23.png,6.0,,1
,survey-likert,12,243849,0.0-4.0-8.0,1673150,2023/12/21 14:29:19,2023/12/21 14:35:51,15790.0,Array,rpms_task,Array,RPMShort_images/G0T1E09RPM25.png,7.0,,1
,survey-likert,13,297513,0.0-4.0-9.0,1673150,2023/12/21 14:29:19,2023/12/21 14:35:51,53662.0,Array,rpms_task,Array,RPMShort_images/G0T1E10RPM30.png,5.0,,1
,survey-likert,14,370577,0.0-4.0-10.0,1673150,2023/12/21 14:29:19,2023/12/21 14:35:51,73062.0,Array,rpms_task,Array,RPMShort_images/G0T1E11RPM31.png,4.0,,1
,survey-likert,15,390001,0.0-4.0-11.0,1673150,2023/12/21 14:29:19,2023/12/21 14:35:51,19422.0,Array,rpms_task,Array,RPMShort_images/G0T1E12RPM35.png,3.0,,1
,html-keyboard-response,16,391809,0.0-5.0,1673150,2023/12/21 14:29:19,2023/12/21 14:35:51,1806.0, ,rpms_debrief,,,,<p style='text-algin:left'>これで実験は終了です。お疲れ様でした。</p><p style='text-algin:left'>スペースキーを押して次の実験に遷移するのをお待ちください。</p>,0
1.0,fullscreen,0,4705,0.0-0.0,312376,2023/12/21 14:28:54,2023/12/21 14:35:58,,,,,,,,0
,survey-html-form,1,14953,0.0-1.0,312376,2023/12/21 14:28:54,2023/12/21 14:35:58,10245.0,Array,rpms_instruction,,,,,0
,survey-html-form,2,23692,0.0-2.0,312376,2023/12/21 14:28:54,2023/12/21 14:35:58,8739.0,Array,rpms_instruction,,,,,0
,survey-html-form,3,34972,0.0-3.0,312376,2023/12/21 14:28:54,2023/12/21 14:35:58,11279.0,Array,rpms_instruction,,,,,0
,survey-likert,4,57062,0.0-4.0-0.0,312376,2023/12/21 14:28:54,2023/12/21 14:35:58,22088.0,Array,rpms_task,Array,RPMShort_images/G0T1E01RPM01.png,5.0,,1
,survey-likert,5,77794,0.0-4.0-1.0,312376,2023/12/21 14:28:54,2023/12/21 14:35:58,20729.0,Array,rpms_task,Array,RPMShort_images/G0T1E02RPM04.png,4.0,,1
,survey-likert,6,108210,0.0-4.0-2.0,312376,2023/12/21 14:28:54,2023/12/21 14:35:58,30413.0,Array,rpms_task,Array,RPMShort_images/G0T1E03RPM08.png,1.0,,1
,survey-likert,7,122698,0.0-4.0-3.0,312376,2023/12/21 14:28:54,2023/12/21 14:35:58,14485.0,Array,rpms_task,Array,RPMShort_images/G0T1E04RPM11.png,5.0,,1
,survey-likert,8,149530,0.0-4.0-4.0,312376,2023/12/21 14:28:54,2023/12/21 14:35:58,26830.0,Array,rpms_task,Array,RPMShort_images/G0T1E05RPM15.png,2.0,,1
,survey-likert,9,161430,0.0-4.0-5.0,312376,2023/12/21 14:28:54,2023/12/21 14:35:58,11897.0,Array,rpms_task,Array,RPMShort_images/G0T1E06RPM18.png,1.0,,0
,survey-likert,10,198698,0.0-4.0-6.0,312376,2023/12/21 14:28:54,2023/12/21 14:35:58,37265.0,Array,rpms_task,Array,RPMShort_images/G0T1E07RPM21.png,4.0,,0
,survey-likert,11,231442,0.0-4.0-7.0,312376,2023/12/21 14:28:54,2023/12/21 14:35:58,32741.0,Array,rpms_task,Array,RPMShort_images/G0T1E08RPM23.png,3.0,,0
,survey-likert,12,282178,0.0-4.0-8.0,312376,2023/12/21 14:28:54,2023/12/21 14:35:58,50733.0,Array,rpms_task,Array,RPMShort_images/G0T1E09RPM25.png,7.0,,1
,survey-likert,13,356373,0.0-4.0-9.0,312376,2023/12/21 14:28:54,2023/12/21 14:35:58,74193.0,Array,rpms_task,Array,RPMShort_images/G0T1E10RPM30.png,4.0,,0
,survey-likert,14,398269,0.0-4.0-10.0,312376,2023/12/21 14:28:54,2023/12/21 14:35:58,41893.0,Array,rpms_task,Array,RPMShort_images/G0T1E11RPM31.png,4.0,,1
,survey-likert,15,422257,0.0-4.0-11.0,312376,2023/12/21 14:28:54,2023/12/21 14:35:58,23985.0,Array,rpms_task,Array,RPMShort_images/G0T1E12RPM35.png,1.0,,0
,html-keyboard-response,16,424083,0.0-5.0,312376,2023/12/21 14:28:54,2023/12/21 14:35:58,1824.0, ,rpms_debrief,,,,<p style='text-algin:left'>これで実験は終了です。お疲れ様でした。</p><p style='text-algin:left'>スペースキーを押して次の実験に遷移するのをお待ちください。</p>,0
1.0,fullscreen,0,5169,0.0-0.0,1773443,2023/12/21 14:28:44,2023/12/21 14:36:15,,,,,,,,0
,survey-html-form,1,10792,0.0-1.0,1773443,2023/12/21 14:28:44,2023/12/21 14:36:15,5619.0,Array,rpms_instruction,,,,,0
,survey-html-form,2,19824,0.0-2.0,1773443,2023/12/21 14:28:44,2023/12/21 14:36:15,9011.0,Array,rpms_instruction,,,,,0
,survey-html-form,3,23108,0.0-3.0,1773443,2023/12/21 14:28:44,2023/12/21 14:36:15,3283.0,Array,rpms_instruction,,,,,0
,survey-likert,4,50402,0.0-4.0-0.0,1773443,2023/12/21 14:28:44,2023/12/21 14:36:15,27287.0,Array,rpms_task,Array,RPMShort_images/G0T1E01RPM01.png,4.0,,0
,survey-likert,5,83546,0.0-4.0-1.0,1773443,2023/12/21 14:28:44,2023/12/21 14:36:15,33139.0,Array,rpms_task,Array,RPMShort_images/G0T1E02RPM04.png,4.0,,1
,survey-likert,6,122751,0.0-4.0-2.0,1773443,2023/12/21 14:28:44,2023/12/21 14:36:15,39200.0,Array,rpms_task,Array,RPMShort_images/G0T1E03RPM08.png,1.0,,1
,survey-likert,7,166681,0.0-4.0-3.0,1773443,2023/12/21 14:28:44,2023/12/21 14:36:15,43927.0,Array,rpms_task,Array,RPMShort_images/G0T1E04RPM11.png,5.0,,1
,survey-likert,8,187021,0.0-4.0-4.0,1773443,2023/12/21 14:28:44,2023/12/21 14:36:15,20336.0,Array,rpms_task,Array,RPMShort_images/G0T1E05RPM15.png,5.0,,0
,survey-likert,9,238108,0.0-4.0-5.0,1773443,2023/12/21 14:28:44,2023/12/21 14:36:15,51085.0,Array,rpms_task,Array,RPMShort_images/G0T1E06RPM18.png,2.0,,0
,survey-likert,10,282007,0.0-4.0-6.0,1773443,2023/12/21 14:28:44,2023/12/21 14:36:15,43896.0,Array,rpms_task,Array,RPMShort_images/G0T1E07RPM21.png,1.0,,0
,survey-likert,11,311987,0.0-4.0-7.0,1773443,2023/12/21 14:28:44,2023/12/21 14:36:15,29979.0,Array,rpms_task,Array,RPMShort_images/G0T1E08RPM23.png,5.0,,0
,survey-likert,12,347010,0.0-4.0-8.0,1773443,2023/12/21 14:28:44,2023/12/21 14:36:15,35019.0,Array,rpms_task,Array,RPMShort_images/G0T1E09RPM25.png,8.0,,0
,survey-likert,13,385148,0.0-4.0-9.0,1773443,2023/12/21 14:28:44,2023/12/21 14:36:15,38133.0,Array,rpms_task,Array,RPMShort_images/G0T1E10RPM30.png,7.0,,0
,survey-likert,14,413452,0.0-4.0-10.0,1773443,2023/12/21 14:28:44,2023/12/21 14:36:15,28299.0,Array,rpms_task,Array,RPMShort_images/G0T1E11RPM31.png,4.0,,1
,survey-likert,15,448496,0.0-4.0-11.0,1773443,2023/12/21 14:28:44,2023/12/21 14:36:15,35041.0,Array,rpms_task,Array,RPMShort_images/G0T1E12RPM35.png,1.0,,0
,html-keyboard-response,16,450746,0.0-5.0,1773443,2023/12/21 14:28:44,2023/12/21 14:36:15,2245.0, ,rpms_debrief,,,,<p style='text-algin:left'>これで実験は終了です。お疲れ様でした。</p><p style='text-algin:left'>スペースキーを押して次の実験に遷移するのをお待ちください。</p>,0
1.0,fullscreen,0,3302,0.0-0.0,4758400,2023/12/21 14:29:09,2023/12/21 14:36:21,,,,,,,,0
,survey-html-form,1,18686,0.0-1.0,4758400,2023/12/21 14:29:09,2023/12/21 14:36:21,15383.0,Array,rpms_instruction,,,,,0
,survey-html-form,2,26861,0.0-2.0,4758400,2023/12/21 14:29:09,2023/12/21 14:36:21,8175.0,Array,rpms_instruction,,,,,0
,survey-html-form,3,36370,0.0-3.0,4758400,2023/12/21 14:29:09,2023/12/21 14:36:21,9509.0,Array,rpms_instruction,,,,,0
,survey-likert,4,116357,0.0-4.0-0.0,4758400,2023/12/21 14:29:09,2023/12/21 14:36:21,79984.0,Array,rpms_task,Array,RPMShort_images/G0T1E01RPM01.png,7.0,,0
,survey-likert,5,145764,0.0-4.0-1.0,4758400,2023/12/21 14:29:09,2023/12/21 14:36:21,29405.0,Array,rpms_task,Array,RPMShort_images/G0T1E02RPM04.png,8.0,,0
,survey-likert,6,186066,0.0-4.0-2.0,4758400,2023/12/21 14:29:09,2023/12/21 14:36:21,40298.0,Array,rpms_task,Array,RPMShort_images/G0T1E03RPM08.png,1.0,,1
,survey-likert,7,217102,0.0-4.0-3.0,4758400,2023/12/21 14:29:09,2023/12/21 14:36:21,31032.0,Array,rpms_task,Array,RPMShort_images/G0T1E04RPM11.png,5.0,,1
,survey-likert,8,239166,0.0-4.0-4.0,4758400,2023/12/21 14:29:09,2023/12/21 14:36:21,22061.0,Array,rpms_task,Array,RPMShort_images/G0T1E05RPM15.png,3.0,,0
,survey-likert,9,261421,0.0-4.0-5.0,4758400,2023/12/21 14:29:09,2023/12/21 14:36:21,22254.0,Array,rpms_task,Array,RPMShort_images/G0T1E06RPM18.png,1.0,,0
,survey-likert,10,302450,0.0-4.0-6.0,4758400,2023/12/21 14:29:09,2023/12/21 14:36:21,41027.0,Array,rpms_task,Array,RPMShort_images/G0T1E07RPM21.png,8.0,,1
,survey-likert,11,316025,0.0-4.0-7.0,4758400,2023/12/21 14:29:09,2023/12/21 14:36:21,13573.0,Array,rpms_task,Array,RPMShort_images/G0T1E08RPM23.png,5.0,,0
,survey-likert,12,332210,0.0-4.0-8.0,4758400,2023/12/21 14:29:09,2023/12/21 14:36:21,16182.0,Array,rpms_task,Array,RPMShort_images/G0T1E09RPM25.png,7.0,,1
,survey-likert,13,365739,0.0-4.0-9.0,4758400,2023/12/21 14:29:09,2023/12/21 14:36:21,33526.0,Array,rpms_task,Array,RPMShort_images/G0T1E10RPM30.png,5.0,,1
,survey-likert,14,403555,0.0-4.0-10.0,4758400,2023/12/21 14:29:09,2023/12/21 14:36:21,37814.0,Array,rpms_task,Array,RPMShort_images/G0T1E11RPM31.png,3.0,,0
,survey-likert,15,428998,0.0-4.0-11.0,4758400,2023/12/21 14:29:09,2023/12/21 14:36:21,25439.0,Array,rpms_task,Array,RPMShort_images/G0T1E12RPM35.png,7.0,,0
,html-keyboard-response,16,432056,0.0-5.0,4758400,2023/12/21 14:29:09,2023/12/21 14:36:21,3056.0, ,rpms_debrief,,,,<p style='text-algin:left'>これで実験は終了です。お疲れ様でした。</p><p style='text-algin:left'>スペースキーを押して次の実験に遷移するのをお待ちください。</p>,0
1.0,fullscreen,0,3742,0.0-0.0,3124577,2023/12/21 14:25:54,2023/12/21 14:36:30,,,,,,,,0
,survey-html-form,1,13263,0.0-1.0,3124577,2023/12/21 14:25:54,2023/12/21 14:36:30,9516.0,Array,rpms_instruction,,,,,0
,survey-html-form,2,23552,0.0-2.0,3124577,2023/12/21 14:25:54,2023/12/21 14:36:30,10287.0,Array,rpms_instruction,,,,,0
,survey-html-form,3,33575,0.0-3.0,3124577,2023/12/21 14:25:54,2023/12/21 14:36:30,10022.0,Array,rpms_instruction,,,,,0
,survey-likert,4,53384,0.0-4.0-0.0,3124577,2023/12/21 14:25:54,2023/12/21 14:36:30,19806.0,Array,rpms_task,Array,RPMShort_images/G0T1E01RPM01.png,5.0,,1
,survey-likert,5,73000,0.0-4.0-1.0,3124577,2023/12/21 14:25:54,2023/12/21 14:36:30,19613.0,Array,rpms_task,Array,RPMShort_images/G0T1E02RPM04.png,4.0,,1
,survey-likert,6,110632,0.0-4.0-2.0,3124577,2023/12/21 14:25:54,2023/12/21 14:36:30,37629.0,Array,rpms_task,Array,RPMShort_images/G0T1E03RPM08.png,1.0,,1
,survey-likert,7,122440,0.0-4.0-3.0,3124577,2023/12/21 14:25:54,2023/12/21 14:36:30,11805.0,Array,rpms_task,Array,RPMShort_images/G0T1E04RPM11.png,5.0,,1
,survey-likert,8,176489,0.0-4.0-4.0,3124577,2023/12/21 14:25:54,2023/12/21 14:36:30,54045.0,Array,rpms_task,Array,RPMShort_images/G0T1E05RPM15.png,2.0,,1
,survey-likert,9,230281,0.0-4.0-5.0,3124577,2023/12/21 14:25:54,2023/12/21 14:36:30,53789.0,Array,rpms_task,Array,RPMShort_images/G0T1E06RPM18.png,7.0,,1
,survey-likert,10,274794,0.0-4.0-6.0,3124577,2023/12/21 14:25:54,2023/12/21 14:36:30,44509.0,Array,rpms_task,Array,RPMShort_images/G0T1E07RPM21.png,8.0,,1
,survey-likert,11,324642,0.0-4.0-7.0,3124577,2023/12/21 14:25:54,2023/12/21 14:36:30,49844.0,Array,rpms_task,Array,RPMShort_images/G0T1E08RPM23.png,6.0,,1
,survey-likert,12,369299,0.0-4.0-8.0,3124577,2023/12/21 14:25:54,2023/12/21 14:36:30,44653.0,Array,rpms_task,Array,RPMShort_images/G0T1E09RPM25.png,7.0,,1
,survey-likert,13,431227,0.0-4.0-9.0,3124577,2023/12/21 14:25:54,2023/12/21 14:36:30,61925.0,Array,rpms_task,Array,RPMShort_images/G0T1E10RPM30.png,5.0,,1
,survey-likert,14,542036,0.0-4.0-10.0,3124577,2023/12/21 14:25:54,2023/12/21 14:36:30,110805.0,Array,rpms_task,Array,RPMShort_images/G0T1E11RPM31.png,4.0,,1
,survey-likert,15,633660,0.0-4.0-11.0,3124577,2023/12/21 14:25:54,2023/12/21 14:36:30,91621.0,Array,rpms_task,Array,RPMShort_images/G0T1E12RPM35.png,1.0,,0
,html-keyboard-response,16,636055,0.0-5.0,3124577,2023/12/21 14:25:54,2023/12/21 14:36:30,2391.0, ,rpms_debrief,,,,<p style='text-algin:left'>これで実験は終了です。お疲れ様でした。</p><p style='text-algin:left'>スペースキーを押して次の実験に遷移するのをお待ちください。</p>,0
1.0,fullscreen,0,19920,0.0-0.0,1523010,2023/12/21 14:27:30,2023/12/21 14:36:40,,,,,,,,0
,survey-html-form,1,38151,0.0-1.0,1523010,2023/12/21 14:27:30,2023/12/21 14:36:40,18229.0,Array,rpms_instruction,,,,,0
,survey-html-form,2,52296,0.0-2.0,1523010,2023/12/21 14:27:30,2023/12/21 14:36:40,14144.0,Array,rpms_instruction,,,,,0
,survey-html-form,3,61111,0.0-3.0,1523010,2023/12/21 14:27:30,2023/12/21 14:36:40,8815.0,Array,rpms_instruction,,,,,0
,survey-likert,4,131273,0.0-4.0-0.0,1523010,2023/12/21 14:27:30,2023/12/21 14:36:40,70160.0,Array,rpms_task,Array,RPMShort_images/G0T1E01RPM01.png,5.0,,1
,survey-likert,5,163980,0.0-4.0-1.0,1523010,2023/12/21 14:27:30,2023/12/21 14:36:40,32704.0,Array,rpms_task,Array,RPMShort_images/G0T1E02RPM04.png,4.0,,1
,survey-likert,6,201871,0.0-4.0-2.0,1523010,2023/12/21 14:27:30,2023/12/21 14:36:40,37888.0,Array,rpms_task,Array,RPMShort_images/G0T1E03RPM08.png,1.0,,1
,survey-likert,7,216053,0.0-4.0-3.0,1523010,2023/12/21 14:27:30,2023/12/21 14:36:40,14180.0,Array,rpms_task,Array,RPMShort_images/G0T1E04RPM11.png,5.0,,1
,survey-likert,8,244044,0.0-4.0-4.0,1523010,2023/12/21 14:27:30,2023/12/21 14:36:40,27989.0,Array,rpms_task,Array,RPMShort_images/G0T1E05RPM15.png,2.0,,1
,survey-likert,9,271645,0.0-4.0-5.0,1523010,2023/12/21 14:27:30,2023/12/21 14:36:40,27599.0,Array,rpms_task,Array,RPMShort_images/G0T1E06RPM18.png,7.0,,1
,survey-likert,10,311679,0.0-4.0-6.0,1523010,2023/12/21 14:27:30,2023/12/21 14:36:40,40032.0,Array,rpms_task,Array,RPMShort_images/G0T1E07RPM21.png,8.0,,1
,survey-likert,11,337890,0.0-4.0-7.0,1523010,2023/12/21 14:27:30,2023/12/21 14:36:40,26209.0,Array,rpms_task,Array,RPMShort_images/G0T1E08RPM23.png,6.0,,1
,survey-likert,12,382067,0.0-4.0-8.0,1523010,2023/12/21 14:27:30,2023/12/21 14:36:40,44175.0,Array,rpms_task,Array,RPMShort_images/G0T1E09RPM25.png,7.0,,1
,survey-likert,13,432668,0.0-4.0-9.0,1523010,2023/12/21 14:27:30,2023/12/21 14:36:40,50599.0,Array,rpms_task,Array,RPMShort_images/G0T1E10RPM30.png,5.0,,1
,survey-likert,14,512021,0.0-4.0-10.0,1523010,2023/12/21 14:27:30,2023/12/21 14:36:40,79351.0,Array,rpms_task,Array,RPMShort_images/G0T1E11RPM31.png,4.0,,1
,survey-likert,15,546459,0.0-4.0-11.0,1523010,2023/12/21 14:27:30,2023/12/21 14:36:40,34436.0,Array,rpms_task,Array,RPMShort_images/G0T1E12RPM35.png,3.0,,1
,html-keyboard-response,16,550292,0.0-5.0,1523010,2023/12/21 14:27:30,2023/12/21 14:36:40,3831.0, ,rpms_debrief,,,,<p style='text-algin:left'>これで実験は終了です。お疲れ様でした。</p><p style='text-algin:left'>スペースキーを押して次の実験に遷移するのをお待ちください。</p>,0
1.0,fullscreen,0,6607,0.0-0.0,217088,2023/12/21 14:26:49,2023/12/21 14:37:06,,,,,,,,0
,survey-html-form,1,16499,0.0-1.0,217088,2023/12/21 14:26:49,2023/12/21 14:37:06,9891.0,Array,rpms_instruction,,,,,0
,survey-html-form,2,39255,0.0-2.0,217088,2023/12/21 14:26:49,2023/12/21 14:37:06,22755.0,Array,rpms_instruction,,,,,0
,survey-html-form,3,50591,0.0-3.0,217088,2023/12/21 14:26:49,2023/12/21 14:37:06,11334.0,Array,rpms_instruction,,,,,0
,survey-likert,4,129655,0.0-4.0-0.0,217088,2023/12/21 14:26:49,2023/12/21 14:37:06,79057.0,Array,rpms_task,Array,RPMShort_images/G0T1E01RPM01.png,2.0,,0
,survey-likert,5,197440,0.0-4.0-1.0,217088,2023/12/21 14:26:49,2023/12/21 14:37:06,67769.0,Array,rpms_task,Array,RPMShort_images/G0T1E02RPM04.png,8.0,,0
,survey-likert,6,228206,0.0-4.0-2.0,217088,2023/12/21 14:26:49,2023/12/21 14:37:06,30752.0,Array,rpms_task,Array,RPMShort_images/G0T1E03RPM08.png,5.0,,0
,survey-likert,7,254410,0.0-4.0-3.0,217088,2023/12/21 14:26:49,2023/12/21 14:37:06,26191.0,Array,rpms_task,Array,RPMShort_images/G0T1E04RPM11.png,3.0,,0
,survey-likert,8,304190,0.0-4.0-4.0,217088,2023/12/21 14:26:49,2023/12/21 14:37:06,49768.0,Array,rpms_task,Array,RPMShort_images/G0T1E05RPM15.png,2.0,,1
,survey-likert,9,359582,0.0-4.0-5.0,217088,2023/12/21 14:26:49,2023/12/21 14:37:06,55379.0,Array,rpms_task,Array,RPMShort_images/G0T1E06RPM18.png,6.0,,0
,survey-likert,10,381974,0.0-4.0-6.0,217088,2023/12/21 14:26:49,2023/12/21 14:37:06,22379.0,Array,rpms_task,Array,RPMShort_images/G0T1E07RPM21.png,4.0,,0
,survey-likert,11,479488,0.0-4.0-7.0,217088,2023/12/21 14:26:49,2023/12/21 14:37:06,97502.0,Array,rpms_task,Array,RPMShort_images/G0T1E08RPM23.png,3.0,,0
,survey-likert,12,508839,0.0-4.0-8.0,217088,2023/12/21 14:26:49,2023/12/21 14:37:06,29338.0,Array,rpms_task,Array,RPMShort_images/G0T1E09RPM25.png,7.0,,1
,survey-likert,13,545705,0.0-4.0-9.0,217088,2023/12/21 14:26:49,2023/12/21 14:37:06,36859.0,Array,rpms_task,Array,RPMShort_images/G0T1E10RPM30.png,1.0,,0
,survey-likert,14,570666,0.0-4.0-10.0,217088,2023/12/21 14:26:49,2023/12/21 14:37:06,24949.0,Array,rpms_task,Array,RPMShort_images/G0T1E11RPM31.png,4.0,,1
,survey-likert,15,611981,0.0-4.0-11.0,217088,2023/12/21 14:26:49,2023/12/21 14:37:06,41301.0,Array,rpms_task,Array,RPMShort_images/G0T1E12RPM35.png,1.0,,0
,html-keyboard-response,16,616833,0.0-5.0,217088,2023/12/21 14:26:49,2023/12/21 14:37:06,4838.0, ,rpms_debrief,,,,<p style='text-algin:left'>これで実験は終了です。お疲れ様でした。</p><p style='text-algin:left'>スペースキーを押して次の実験に遷移するのをお待ちください。</p>,0
1.0,fullscreen,0,4334,0.0-0.0,25920,2023/12/21 14:24:50,2023/12/21 14:37:08,,,,,,,,0
,survey-html-form,1,12907,0.0-1.0,25920,2023/12/21 14:24:50,2023/12/21 14:37:08,8572.0,Array,rpms_instruction,,,,,0
,survey-html-form,2,18526,0.0-2.0,25920,2023/12/21 14:24:50,2023/12/21 14:37:08,5619.0,Array,rpms_instruction,,,,,0
,survey-html-form,3,29640,0.0-3.0,25920,2023/12/21 14:24:50,2023/12/21 14:37:08,11104.0,Array,rpms_instruction,,,,,0
,survey-likert,4,57920,0.0-4.0-0.0,25920,2023/12/21 14:24:50,2023/12/21 14:37:08,28279.0,Array,rpms_task,Array,RPMShort_images/G0T1E01RPM01.png,5.0,,1
,survey-likert,5,86904,0.0-4.0-1.0,25920,2023/12/21 14:24:50,2023/12/21 14:37:08,28981.0,Array,rpms_task,Array,RPMShort_images/G0T1E02RPM04.png,4.0,,1
,survey-likert,6,118640,0.0-4.0-2.0,25920,2023/12/21 14:24:50,2023/12/21 14:37:08,31734.0,Array,rpms_task,Array,RPMShort_images/G0T1E03RPM08.png,1.0,,1
,survey-likert,7,147716,0.0-4.0-3.0,25920,2023/12/21 14:24:50,2023/12/21 14:37:08,29073.0,Array,rpms_task,Array,RPMShort_images/G0T1E04RPM11.png,4.0,,0
,survey-likert,8,186464,0.0-4.0-4.0,25920,2023/12/21 14:24:50,2023/12/21 14:37:08,38746.0,Array,rpms_task,Array,RPMShort_images/G0T1E05RPM15.png,6.0,,0
,survey-likert,9,241180,0.0-4.0-5.0,25920,2023/12/21 14:24:50,2023/12/21 14:37:08,54714.0,Array,rpms_task,Array,RPMShort_images/G0T1E06RPM18.png,7.0,,1
,survey-likert,10,299084,0.0-4.0-6.0,25920,2023/12/21 14:24:50,2023/12/21 14:37:08,57902.0,Array,rpms_task,Array,RPMShort_images/G0T1E07RPM21.png,7.0,,0
,survey-likert,11,335276,0.0-4.0-7.0,25920,2023/12/21 14:24:50,2023/12/21 14:37:08,36190.0,Array,rpms_task,Array,RPMShort_images/G0T1E08RPM23.png,3.0,,0
,survey-likert,12,403000,0.0-4.0-8.0,25920,2023/12/21 14:24:50,2023/12/21 14:37:08,67722.0,Array,rpms_task,Array,RPMShort_images/G0T1E09RPM25.png,7.0,,1
,survey-likert,13,504096,0.0-4.0-9.0,25920,2023/12/21 14:24:50,2023/12/21 14:37:08,101094.0,Array,rpms_task,Array,RPMShort_images/G0T1E10RPM30.png,5.0,,1
,survey-likert,14,587827,0.0-4.0-10.0,25920,2023/12/21 14:24:50,2023/12/21 14:37:08,83730.0,Array,rpms_task,Array,RPMShort_images/G0T1E11RPM31.png,7.0,,0
,survey-likert,15,735727,0.0-4.0-11.0,25920,2023/12/21 14:24:50,2023/12/21 14:37:08,147898.0,Array,rpms_task,Array,RPMShort_images/G0T1E12RPM35.png,3.0,,1
,html-keyboard-response,16,738283,0.0-5.0,25920,2023/12/21 14:24:50,2023/12/21 14:37:08,2554.0, ,rpms_debrief,,,,<p style='text-algin:left'>これで実験は終了です。お疲れ様でした。</p><p style='text-algin:left'>スペースキーを押して次の実験に遷移するのをお待ちください。</p>,0
1.0,fullscreen,0,4790,0.0-0.0,2600289,2023/12/21 14:27:15,2023/12/21 14:37:25,,,,,,,,0
,survey-html-form,1,18044,0.0-1.0,2600289,2023/12/21 14:27:15,2023/12/21 14:37:25,13239.0,Array,rpms_instruction,,,,,0
,survey-html-form,2,31276,0.0-2.0,2600289,2023/12/21 14:27:15,2023/12/21 14:37:25,13231.0,Array,rpms_instruction,,,,,0
,survey-html-form,3,43216,0.0-3.0,2600289,2023/12/21 14:27:15,2023/12/21 14:37:25,11939.0,Array,rpms_instruction,,,,,0
,survey-likert,4,70285,0.0-4.0-0.0,2600289,2023/12/21 14:27:15,2023/12/21 14:37:25,27066.0,Array,rpms_task,Array,RPMShort_images/G0T1E01RPM01.png,1.0,,0
,survey-likert,5,125296,0.0-4.0-1.0,2600289,2023/12/21 14:27:15,2023/12/21 14:37:25,55007.0,Array,rpms_task,Array,RPMShort_images/G0T1E02RPM04.png,8.0,,0
,survey-likert,6,160694,0.0-4.0-2.0,2600289,2023/12/21 14:27:15,2023/12/21 14:37:25,35393.0,Array,rpms_task,Array,RPMShort_images/G0T1E03RPM08.png,1.0,,1
,survey-likert,7,200799,0.0-4.0-3.0,2600289,2023/12/21 14:27:15,2023/12/21 14:37:25,40102.0,Array,rpms_task,Array,RPMShort_images/G0T1E04RPM11.png,5.0,,1
,survey-likert,8,235381,0.0-4.0-4.0,2600289,2023/12/21 14:27:15,2023/12/21 14:37:25,34578.0,Array,rpms_task,Array,RPMShort_images/G0T1E05RPM15.png,2.0,,1
,survey-likert,9,273534,0.0-4.0-5.0,2600289,2023/12/21 14:27:15,2023/12/21 14:37:25,38150.0,Array,rpms_task,Array,RPMShort_images/G0T1E06RPM18.png,7.0,,1
,survey-likert,10,339834,0.0-4.0-6.0,2600289,2023/12/21 14:27:15,2023/12/21 14:37:25,66295.0,Array,rpms_task,Array,RPMShort_images/G0T1E07RPM21.png,3.0,,0
,survey-likert,11,380417,0.0-4.0-7.0,2600289,2023/12/21 14:27:15,2023/12/21 14:37:25,40580.0,Array,rpms_task,Array,RPMShort_images/G0T1E08RPM23.png,8.0,,0
,survey-likert,12,417270,0.0-4.0-8.0,2600289,2023/12/21 14:27:15,2023/12/21 14:37:25,36850.0,Array,rpms_task,Array,RPMShort_images/G0T1E09RPM25.png,1.0,,0
,survey-likert,13,490805,0.0-4.0-9.0,2600289,2023/12/21 14:27:15,2023/12/21 14:37:25,73531.0,Array,rpms_task,Array,RPMShort_images/G0T1E10RPM30.png,5.0,,1
,survey-likert,14,532651,0.0-4.0-10.0,2600289,2023/12/21 14:27:15,2023/12/21 14:37:25,41842.0,Array,rpms_task,Array,RPMShort_images/G0T1E11RPM31.png,6.0,,0
,survey-likert,15,608556,0.0-4.0-11.0,2600289,2023/12/21 14:27:15,2023/12/21 14:37:25,75902.0,Array,rpms_task,Array,RPMShort_images/G0T1E12RPM35.png,1.0,,0
,html-keyboard-response,16,610349,0.0-5.0,2600289,2023/12/21 14:27:15,2023/12/21 14:37:25,1788.0, ,rpms_debrief,,,,<p style='text-algin:left'>これで実験は終了です。お疲れ様でした。</p><p style='text-algin:left'>スペースキーを押して次の実験に遷移するのをお待ちください。</p>,0
1.0,fullscreen,0,9912,0.0-0.0,2259197,2023/12/21 14:30:01,2023/12/21 14:37:31,,,,,,,,0
,survey-html-form,1,21680,0.0-1.0,2259197,2023/12/21 14:30:01,2023/12/21 14:37:31,11766.0,Array,rpms_instruction,,,,,0
,survey-html-form,2,36143,0.0-2.0,2259197,2023/12/21 14:30:01,2023/12/21 14:37:31,14462.0,Array,rpms_instruction,,,,,0
,survey-html-form,3,38695,0.0-3.0,2259197,2023/12/21 14:30:01,2023/12/21 14:37:31,2552.0,Array,rpms_instruction,,,,,0
,survey-likert,4,61455,0.0-4.0-0.0,2259197,2023/12/21 14:30:01,2023/12/21 14:37:31,22757.0,Array,rpms_task,Array,RPMShort_images/G0T1E01RPM01.png,2.0,,0
,survey-likert,5,96871,0.0-4.0-1.0,2259197,2023/12/21 14:30:01,2023/12/21 14:37:31,35413.0,Array,rpms_task,Array,RPMShort_images/G0T1E02RPM04.png,8.0,,0
,survey-likert,6,116192,0.0-4.0-2.0,2259197,2023/12/21 14:30:01,2023/12/21 14:37:31,19318.0,Array,rpms_task,Array,RPMShort_images/G0T1E03RPM08.png,8.0,,0
,survey-likert,7,129543,0.0-4.0-3.0,2259197,2023/12/21 14:30:01,2023/12/21 14:37:31,13349.0,Array,rpms_task,Array,RPMShort_images/G0T1E04RPM11.png,3.0,,0
,survey-likert,8,159879,0.0-4.0-4.0,2259197,2023/12/21 14:30:01,2023/12/21 14:37:31,30333.0,Array,rpms_task,Array,RPMShort_images/G0T1E05RPM15.png,8.0,,0
,survey-likert,9,177647,0.0-4.0-5.0,2259197,2023/12/21 14:30:01,2023/12/21 14:37:31,17765.0,Array,rpms_task,Array,RPMShort_images/G0T1E06RPM18.png,7.0,,1
,survey-likert,10,217119,0.0-4.0-6.0,2259197,2023/12/21 14:30:01,2023/12/21 14:37:31,39469.0,Array,rpms_task,Array,RPMShort_images/G0T1E07RPM21.png,8.0,,1
,survey-likert,11,287414,0.0-4.0-7.0,2259197,2023/12/21 14:30:01,2023/12/21 14:37:31,70293.0,Array,rpms_task,Array,RPMShort_images/G0T1E08RPM23.png,3.0,,0
,survey-likert,12,316119,0.0-4.0-8.0,2259197,2023/12/21 14:30:01,2023/12/21 14:37:31,28702.0,Array,rpms_task,Array,RPMShort_images/G0T1E09RPM25.png,7.0,,1
,survey-likert,13,367374,0.0-4.0-9.0,2259197,2023/12/21 14:30:01,2023/12/21 14:37:31,51253.0,Array,rpms_task,Array,RPMShort_images/G0T1E10RPM30.png,1.0,,0
,survey-likert,14,426870,0.0-4.0-10.0,2259197,2023/12/21 14:30:01,2023/12/21 14:37:31,59494.0,Array,rpms_task,Array,RPMShort_images/G0T1E11RPM31.png,1.0,,0
,survey-likert,15,444879,0.0-4.0-11.0,2259197,2023/12/21 14:30:01,2023/12/21 14:37:31,18006.0,Array,rpms_task,Array,RPMShort_images/G0T1E12RPM35.png,1.0,,0
,html-keyboard-response,16,450332,0.0-5.0,2259197,2023/12/21 14:30:01,2023/12/21 14:37:31,5452.0, ,rpms_debrief,,,,<p style='text-algin:left'>これで実験は終了です。お疲れ様でした。</p><p style='text-algin:left'>スペースキーを押して次の実験に遷移するのをお待ちください。</p>,0
1.0,fullscreen,0,17412,0.0-0.0,3551128,2023/12/21 14:29:13,2023/12/21 14:37:40,,,,,,,,0
,survey-html-form,1,29318,0.0-1.0,3551128,2023/12/21 14:29:13,2023/12/21 14:37:40,11906.0,Array,rpms_instruction,,,,,0
,survey-html-form,2,41633,0.0-2.0,3551128,2023/12/21 14:29:13,2023/12/21 14:37:40,12313.0,Array,rpms_instruction,,,,,0
,survey-html-form,3,50794,0.0-3.0,3551128,2023/12/21 14:29:13,2023/12/21 14:37:40,9159.0,Array,rpms_instruction,,,,,0
,survey-likert,4,80808,0.0-4.0-0.0,3551128,2023/12/21 14:29:13,2023/12/21 14:37:40,30011.0,Array,rpms_task,Array,RPMShort_images/G0T1E01RPM01.png,5.0,,1
,survey-likert,5,110681,0.0-4.0-1.0,3551128,2023/12/21 14:29:13,2023/12/21 14:37:40,29870.0,Array,rpms_task,Array,RPMShort_images/G0T1E02RPM04.png,4.0,,1
,survey-likert,6,132903,0.0-4.0-2.0,3551128,2023/12/21 14:29:13,2023/12/21 14:37:40,22217.0,Array,rpms_task,Array,RPMShort_images/G0T1E03RPM08.png,1.0,,1
,survey-likert,7,142124,0.0-4.0-3.0,3551128,2023/12/21 14:29:13,2023/12/21 14:37:40,9219.0,Array,rpms_task,Array,RPMShort_images/G0T1E04RPM11.png,5.0,,1
,survey-likert,8,185086,0.0-4.0-4.0,3551128,2023/12/21 14:29:13,2023/12/21 14:37:40,42958.0,Array,rpms_task,Array,RPMShort_images/G0T1E05RPM15.png,2.0,,1
,survey-likert,9,210826,0.0-4.0-5.0,3551128,2023/12/21 14:29:13,2023/12/21 14:37:40,25737.0,Array,rpms_task,Array,RPMShort_images/G0T1E06RPM18.png,1.0,,0
,survey-likert,10,257933,0.0-4.0-6.0,3551128,2023/12/21 14:29:13,2023/12/21 14:37:40,47103.0,Array,rpms_task,Array,RPMShort_images/G0T1E07RPM21.png,4.0,,0
,survey-likert,11,289639,0.0-4.0-7.0,3551128,2023/12/21 14:29:13,2023/12/21 14:37:40,31704.0,Array,rpms_task,Array,RPMShort_images/G0T1E08RPM23.png,6.0,,1
,survey-likert,12,320435,0.0-4.0-8.0,3551128,2023/12/21 14:29:13,2023/12/21 14:37:40,30794.0,Array,rpms_task,Array,RPMShort_images/G0T1E09RPM25.png,7.0,,1
,survey-likert,13,377784,0.0-4.0-9.0,3551128,2023/12/21 14:29:13,2023/12/21 14:37:40,57346.0,Array,rpms_task,Array,RPMShort_images/G0T1E10RPM30.png,4.0,,0
,survey-likert,14,443844,0.0-4.0-10.0,3551128,2023/12/21 14:29:13,2023/12/21 14:37:40,66058.0,Array,rpms_task,Array,RPMShort_images/G0T1E11RPM31.png,8.0,,0
,survey-likert,15,502668,0.0-4.0-11.0,3551128,2023/12/21 14:29:13,2023/12/21 14:37:40,58822.0,Array,rpms_task,Array,RPMShort_images/G0T1E12RPM35.png,1.0,,0
,html-keyboard-response,16,507836,0.0-5.0,3551128,2023/12/21 14:29:13,2023/12/21 14:37:40,5166.0, ,rpms_debrief,,,,<p style='text-algin:left'>これで実験は終了です。お疲れ様でした。</p><p style='text-algin:left'>スペースキーを押して次の実験に遷移するのをお待ちください。</p>,0
1.0,fullscreen,0,4277,0.0-0.0,1127132,2023/12/20 21:26:58,2023/12/20 21:37:49,,,,,,,,0
,survey-html-form,1,11646,0.0-1.0,1127132,2023/12/20 21:26:58,2023/12/20 21:37:49,7366.0,Array,rpms_instruction,,,,,0
,survey-html-form,2,23177,0.0-2.0,1127132,2023/12/20 21:26:58,2023/12/20 21:37:49,11530.0,Array,rpms_instruction,,,,,0
,survey-html-form,3,30897,0.0-3.0,1127132,2023/12/20 21:26:58,2023/12/20 21:37:49,7718.0,Array,rpms_instruction,,,,,0
,survey-likert,4,77344,0.0-4.0-0.0,1127132,2023/12/20 21:26:58,2023/12/20 21:37:49,46437.0,Array,rpms_task,Array,RPMShort_images/G0T1E01RPM01.png,5.0,,1
,survey-likert,5,136770,0.0-4.0-1.0,1127132,2023/12/20 21:26:58,2023/12/20 21:37:49,59409.0,Array,rpms_task,Array,RPMShort_images/G0T1E02RPM04.png,8.0,,0
,survey-likert,6,174034,0.0-4.0-2.0,1127132,2023/12/20 21:26:58,2023/12/20 21:37:49,37251.0,Array,rpms_task,Array,RPMShort_images/G0T1E03RPM08.png,1.0,,1
,survey-likert,7,241249,0.0-4.0-3.0,1127132,2023/12/20 21:26:58,2023/12/20 21:37:49,67200.0,Array,rpms_task,Array,RPMShort_images/G0T1E04RPM11.png,7.0,,0
,survey-likert,8,292494,0.0-4.0-4.0,1127132,2023/12/20 21:26:58,2023/12/20 21:37:49,51241.0,Array,rpms_task,Array,RPMShort_images/G0T1E05RPM15.png,5.0,,0
,survey-likert,9,313220,0.0-4.0-5.0,1127132,2023/12/20 21:26:58,2023/12/20 21:37:49,20711.0,Array,rpms_task,Array,RPMShort_images/G0T1E06RPM18.png,1.0,,0
,survey-likert,10,345856,0.0-4.0-6.0,1127132,2023/12/20 21:26:58,2023/12/20 21:37:49,32621.0,Array,rpms_task,Array,RPMShort_images/G0T1E07RPM21.png,8.0,,1
,survey-likert,11,400451,0.0-4.0-7.0,1127132,2023/12/20 21:26:58,2023/12/20 21:37:49,54584.0,Array,rpms_task,Array,RPMShort_images/G0T1E08RPM23.png,6.0,,1
,survey-likert,12,436819,0.0-4.0-8.0,1127132,2023/12/20 21:26:58,2023/12/20 21:37:49,36358.0,Array,rpms_task,Array,RPMShort_images/G0T1E09RPM25.png,5.0,,0
,survey-likert,13,500397,0.0-4.0-9.0,1127132,2023/12/20 21:26:58,2023/12/20 21:37:49,63564.0,Array,rpms_task,Array,RPMShort_images/G0T1E10RPM30.png,5.0,,1
,survey-likert,14,568328,0.0-4.0-10.0,1127132,2023/12/20 21:26:58,2023/12/20 21:37:49,67920.0,Array,rpms_task,Array,RPMShort_images/G0T1E11RPM31.png,5.0,,0
,survey-likert,15,647617,0.0-4.0-11.0,1127132,2023/12/20 21:26:58,2023/12/20 21:37:49,79279.0,Array,rpms_task,Array,RPMShort_images/G0T1E12RPM35.png,1.0,,0
,html-keyboard-response,16,650860,0.0-5.0,1127132,2023/12/20 21:26:58,2023/12/20 21:37:49,3229.0, ,rpms_debrief,,,,<p style='text-algin:left'>これで実験は終了です。お疲れ様でした。</p><p style='text-algin:left'>スペースキーを押して次の実験に遷移するのをお待ちください。</p>,0
1.0,fullscreen,0,2493,0.0-0.0,1445649,2023/12/21 14:31:51,2023/12/21 14:38:12,,,,,,,,0
,survey-html-form,1,9636,0.0-1.0,1445649,2023/12/21 14:31:51,2023/12/21 14:38:12,7141.0,Array,rpms_instruction,,,,,0
,survey-html-form,2,15444,0.0-2.0,1445649,2023/12/21 14:31:51,2023/12/21 14:38:12,5807.0,Array,rpms_instruction,,,,,0
,survey-html-form,3,19580,0.0-3.0,1445649,2023/12/21 14:31:51,2023/12/21 14:38:12,4135.0,Array,rpms_instruction,,,,,0
,survey-likert,4,34916,0.0-4.0-0.0,1445649,2023/12/21 14:31:51,2023/12/21 14:38:12,15334.0,Array,rpms_task,Array,RPMShort_images/G0T1E01RPM01.png,5.0,,1
,survey-likert,5,58604,0.0-4.0-1.0,1445649,2023/12/21 14:31:51,2023/12/21 14:38:12,23685.0,Array,rpms_task,Array,RPMShort_images/G0T1E02RPM04.png,8.0,,0
,survey-likert,6,77908,0.0-4.0-2.0,1445649,2023/12/21 14:31:51,2023/12/21 14:38:12,19301.0,Array,rpms_task,Array,RPMShort_images/G0T1E03RPM08.png,2.0,,0
,survey-likert,7,90308,0.0-4.0-3.0,1445649,2023/12/21 14:31:51,2023/12/21 14:38:12,12397.0,Array,rpms_task,Array,RPMShort_images/G0T1E04RPM11.png,5.0,,1
,survey-likert,8,117428,0.0-4.0-4.0,1445649,2023/12/21 14:31:51,2023/12/21 14:38:12,27117.0,Array,rpms_task,Array,RPMShort_images/G0T1E05RPM15.png,2.0,,1
,survey-likert,9,140667,0.0-4.0-5.0,1445649,2023/12/21 14:31:51,2023/12/21 14:38:12,23237.0,Array,rpms_task,Array,RPMShort_images/G0T1E06RPM18.png,7.0,,1
,survey-likert,10,158499,0.0-4.0-6.0,1445649,2023/12/21 14:31:51,2023/12/21 14:38:12,17829.0,Array,rpms_task,Array,RPMShort_images/G0T1E07RPM21.png,1.0,,0
,survey-likert,11,209868,0.0-4.0-7.0,1445649,2023/12/21 14:31:51,2023/12/21 14:38:12,51364.0,Array,rpms_task,Array,RPMShort_images/G0T1E08RPM23.png,3.0,,0
,survey-likert,12,230772,0.0-4.0-8.0,1445649,2023/12/21 14:31:51,2023/12/21 14:38:12,20901.0,Array,rpms_task,Array,RPMShort_images/G0T1E09RPM25.png,7.0,,1
,survey-likert,13,260388,0.0-4.0-9.0,1445649,2023/12/21 14:31:51,2023/12/21 14:38:12,29613.0,Array,rpms_task,Array,RPMShort_images/G0T1E10RPM30.png,2.0,,0
,survey-likert,14,340476,0.0-4.0-10.0,1445649,2023/12/21 14:31:51,2023/12/21 14:38:12,80086.0,Array,rpms_task,Array,RPMShort_images/G0T1E11RPM31.png,3.0,,0
,survey-likert,15,379508,0.0-4.0-11.0,1445649,2023/12/21 14:31:51,2023/12/21 14:38:12,39029.0,Array,rpms_task,Array,RPMShort_images/G0T1E12RPM35.png,3.0,,1
,html-keyboard-response,16,381321,0.0-5.0,1445649,2023/12/21 14:31:51,2023/12/21 14:38:12,1810.0, ,rpms_debrief,,,,<p style='text-algin:left'>これで実験は終了です。お疲れ様でした。</p><p style='text-algin:left'>スペースキーを押して次の実験に遷移するのをお待ちください。</p>,0
1.0,fullscreen,0,6389,0.0-0.0,2884266,2023/12/21 14:26:51,2023/12/21 14:38:20,,,,,,,,0
,survey-html-form,1,12078,0.0-1.0,2884266,2023/12/21 14:26:51,2023/12/21 14:38:20,5687.0,Array,rpms_instruction,,,,,0
,survey-html-form,2,22350,0.0-2.0,2884266,2023/12/21 14:26:51,2023/12/21 14:38:20,10272.0,Array,rpms_instruction,,,,,0
,survey-html-form,3,29021,0.0-3.0,2884266,2023/12/21 14:26:51,2023/12/21 14:38:20,6670.0,Array,rpms_instruction,,,,,0
,survey-likert,4,105177,0.0-4.0-0.0,2884266,2023/12/21 14:26:51,2023/12/21 14:38:20,76152.0,Array,rpms_task,Array,RPMShort_images/G0T1E01RPM01.png,5.0,,1
,survey-likert,5,145264,0.0-4.0-1.0,2884266,2023/12/21 14:26:51,2023/12/21 14:38:20,40082.0,Array,rpms_task,Array,RPMShort_images/G0T1E02RPM04.png,4.0,,1
,survey-likert,6,172325,0.0-4.0-2.0,2884266,2023/12/21 14:26:51,2023/12/21 14:38:20,27057.0,Array,rpms_task,Array,RPMShort_images/G0T1E03RPM08.png,1.0,,1
,survey-likert,7,200246,0.0-4.0-3.0,2884266,2023/12/21 14:26:51,2023/12/21 14:38:20,27917.0,Array,rpms_task,Array,RPMShort_images/G0T1E04RPM11.png,5.0,,1
,survey-likert,8,242269,0.0-4.0-4.0,2884266,2023/12/21 14:26:51,2023/12/21 14:38:20,42019.0,Array,rpms_task,Array,RPMShort_images/G0T1E05RPM15.png,2.0,,1
,survey-likert,9,307452,0.0-4.0-5.0,2884266,2023/12/21 14:26:51,2023/12/21 14:38:20,65179.0,Array,rpms_task,Array,RPMShort_images/G0T1E06RPM18.png,2.0,,0
,survey-likert,10,343438,0.0-4.0-6.0,2884266,2023/12/21 14:26:51,2023/12/21 14:38:20,35982.0,Array,rpms_task,Array,RPMShort_images/G0T1E07RPM21.png,4.0,,0
,survey-likert,11,428769,0.0-4.0-7.0,2884266,2023/12/21 14:26:51,2023/12/21 14:38:20,85328.0,Array,rpms_task,Array,RPMShort_images/G0T1E08RPM23.png,6.0,,1
,survey-likert,12,459819,0.0-4.0-8.0,2884266,2023/12/21 14:26:51,2023/12/21 14:38:20,31047.0,Array,rpms_task,Array,RPMShort_images/G0T1E09RPM25.png,7.0,,1
,survey-likert,13,526339,0.0-4.0-9.0,2884266,2023/12/21 14:26:51,2023/12/21 14:38:20,66516.0,Array,rpms_task,Array,RPMShort_images/G0T1E10RPM30.png,2.0,,0
,survey-likert,14,635278,0.0-4.0-10.0,2884266,2023/12/21 14:26:51,2023/12/21 14:38:20,108936.0,Array,rpms_task,Array,RPMShort_images/G0T1E11RPM31.png,8.0,,0
,survey-likert,15,687130,0.0-4.0-11.0,2884266,2023/12/21 14:26:51,2023/12/21 14:38:20,51849.0,Array,rpms_task,Array,RPMShort_images/G0T1E12RPM35.png,3.0,,1
,html-keyboard-response,16,689010,0.0-5.0,2884266,2023/12/21 14:26:51,2023/12/21 14:38:20,1877.0, ,rpms_debrief,,,,<p style='text-algin:left'>これで実験は終了です。お疲れ様でした。</p><p style='text-algin:left'>スペースキーを押して次の実験に遷移するのをお待ちください。</p>,0
1.0,fullscreen,0,3765,0.0-0.0,839571,2023/12/21 14:31:20,2023/12/21 14:38:22,,,,,,,,0
,survey-html-form,1,15931,0.0-1.0,839571,2023/12/21 14:31:20,2023/12/21 14:38:22,12165.0,Array,rpms_instruction,,,,,0
,survey-html-form,2,25917,0.0-2.0,839571,2023/12/21 14:31:20,2023/12/21 14:38:22,9985.0,Array,rpms_instruction,,,,,0
,survey-html-form,3,33771,0.0-3.0,839571,2023/12/21 14:31:20,2023/12/21 14:38:22,7853.0,Array,rpms_instruction,,,,,0
,survey-likert,4,69512,0.0-4.0-0.0,839571,2023/12/21 14:31:20,2023/12/21 14:38:22,35740.0,Array,rpms_task,Array,RPMShort_images/G0T1E01RPM01.png,5.0,,1
,survey-likert,5,137232,0.0-4.0-1.0,839571,2023/12/21 14:31:20,2023/12/21 14:38:22,67717.0,Array,rpms_task,Array,RPMShort_images/G0T1E02RPM04.png,8.0,,0
,survey-likert,6,161438,0.0-4.0-2.0,839571,2023/12/21 14:31:20,2023/12/21 14:38:22,24204.0,Array,rpms_task,Array,RPMShort_images/G0T1E03RPM08.png,1.0,,1
,survey-likert,7,205596,0.0-4.0-3.0,839571,2023/12/21 14:31:20,2023/12/21 14:38:22,44156.0,Array,rpms_task,Array,RPMShort_images/G0T1E04RPM11.png,7.0,,0
,survey-likert,8,235230,0.0-4.0-4.0,839571,2023/12/21 14:31:20,2023/12/21 14:38:22,29632.0,Array,rpms_task,Array,RPMShort_images/G0T1E05RPM15.png,2.0,,1
,survey-likert,9,265055,0.0-4.0-5.0,839571,2023/12/21 14:31:20,2023/12/21 14:38:22,29823.0,Array,rpms_task,Array,RPMShort_images/G0T1E06RPM18.png,2.0,,0
,survey-likert,10,293348,0.0-4.0-6.0,839571,2023/12/21 14:31:20,2023/12/21 14:38:22,28291.0,Array,rpms_task,Array,RPMShort_images/G0T1E07RPM21.png,1.0,,0
